"","date","id","block","trial","word","font","valence","resp","rt","wf_kf","val_mn","arous_mn","domin_mn","val_sd","arous_sd","domin_sd"
"1","2022-09-23_10h37.26.144",1002,"practice",1,"green","green",NA,"f",2831.4,NA,NA,NA,NA,NA,NA,NA
"2","2022-09-23_10h37.26.144",1002,"practice",2,"orange","yellow",NA,"j",1343.6,NA,NA,NA,NA,NA,NA,NA
"3","2022-09-23_10h37.26.144",1002,"practice",3,"orange","orange",NA,"j",2164.8,NA,NA,NA,NA,NA,NA,NA
"4","2022-09-23_10h37.26.144",1002,"practice",4,"orange","orange",NA,"j",700.2,NA,NA,NA,NA,NA,NA,NA
"5","2022-09-23_10h37.26.144",1002,"practice",5,"yellow","green",NA,"k",1980.8,NA,NA,NA,NA,NA,NA,NA
"6","2022-09-23_10h37.26.144",1002,"practice",6,"blue","blue",NA,"d",1153,NA,NA,NA,NA,NA,NA,NA
"7","2022-09-23_10h37.26.144",1002,"practice",7,"blue","green",NA,"f",1998,NA,NA,NA,NA,NA,NA,NA
"8","2022-09-23_10h37.26.144",1002,"practice",8,"green","yellow",NA,"j",1482.1,NA,NA,NA,NA,NA,NA,NA
"9","2022-09-23_10h37.26.144",1002,"practice",9,"orange","blue",NA,"k",2716.9,NA,NA,NA,NA,NA,NA,NA
"10","2022-09-23_10h37.26.144",1002,"practice",10,"yellow","yellow",NA,"k",3766.9,NA,NA,NA,NA,NA,NA,NA
"11","2022-09-23_10h37.26.144",1002,"practice",11,"green","orange",NA,"f",1505.8,NA,NA,NA,NA,NA,NA,NA
"12","2022-09-23_10h37.26.144",1002,"practice",12,"blue","blue",NA,"d",1197.4,NA,NA,NA,NA,NA,NA,NA
"13","2022-09-23_10h37.26.144",1002,"practice",13,"yellow","yellow",NA,"k",1498.4,NA,NA,NA,NA,NA,NA,NA
"14","2022-09-23_10h37.26.144",1002,"practice",14,"blue","orange",NA,"j",1130.1,NA,NA,NA,NA,NA,NA,NA
"15","2022-09-23_10h37.26.144",1002,"practice",15,"orange","green",NA,"f",1107,NA,NA,NA,NA,NA,NA,NA
"16","2022-09-23_10h37.26.144",1002,"practice",16,"blue","blue",NA,"d",1697,NA,NA,NA,NA,NA,NA,NA
"17","2022-09-23_10h37.26.144",1002,"practice",17,"yellow","yellow",NA,"k",1280.7,NA,NA,NA,NA,NA,NA,NA
"18","2022-09-23_10h37.26.144",1002,"practice",18,"green","blue",NA,"f",1432.4,NA,NA,NA,NA,NA,NA,NA
"19","2022-09-23_10h37.26.144",1002,"practice",19,"green","green",NA,"f",1114.3,NA,NA,NA,NA,NA,NA,NA
"20","2022-09-23_10h37.26.144",1002,"practice",20,"yellow","blue",NA,"k",1299.6,NA,NA,NA,NA,NA,NA,NA
"21","2022-09-23_10h37.26.144",1002,"practice",21,"blue","yellow",NA,"k",2999.4,NA,NA,NA,NA,NA,NA,NA
"22","2022-09-23_10h37.26.144",1002,"practice",22,"yellow","orange",NA,"j",984,NA,NA,NA,NA,NA,NA,NA
"23","2022-09-23_10h37.26.144",1002,"practice",23,"green","green",NA,"f",832.1,NA,NA,NA,NA,NA,NA,NA
"24","2022-09-23_10h37.26.144",1002,"practice",24,"orange","orange",NA,"j",1121.3,NA,NA,NA,NA,NA,NA,NA
"25","2022-09-23_10h37.26.144",1002,"stroop",1,"blue","blue",NA,"d",930.6,NA,NA,NA,NA,NA,NA,NA
"26","2022-09-23_10h37.26.144",1002,"stroop",2,"orange","orange",NA,"j",815.1,NA,NA,NA,NA,NA,NA,NA
"27","2022-09-23_10h37.26.144",1002,"stroop",3,"green","green",NA,"f",533.3,NA,NA,NA,NA,NA,NA,NA
"28","2022-09-23_10h37.26.144",1002,"stroop",4,"green","green",NA,"f",900,NA,NA,NA,NA,NA,NA,NA
"29","2022-09-23_10h37.26.144",1002,"stroop",5,"orange","orange",NA,"j",683.2,NA,NA,NA,NA,NA,NA,NA
"30","2022-09-23_10h37.26.144",1002,"stroop",6,"yellow","yellow",NA,"k",800.2,NA,NA,NA,NA,NA,NA,NA
"31","2022-09-23_10h37.26.144",1002,"stroop",7,"green","green",NA,"f",1038.8,NA,NA,NA,NA,NA,NA,NA
"32","2022-09-23_10h37.26.144",1002,"stroop",8,"green","green",NA,"f",616.4,NA,NA,NA,NA,NA,NA,NA
"33","2022-09-23_10h37.26.144",1002,"stroop",9,"blue","blue",NA,"d",798,NA,NA,NA,NA,NA,NA,NA
"34","2022-09-23_10h37.26.144",1002,"stroop",10,"orange","blue",NA,"d",1648.3,NA,NA,NA,NA,NA,NA,NA
"35","2022-09-23_10h37.26.144",1002,"stroop",11,"blue","blue",NA,"d",585.7,NA,NA,NA,NA,NA,NA,NA
"36","2022-09-23_10h37.26.144",1002,"stroop",12,"green","yellow",NA,"k",1213.7,NA,NA,NA,NA,NA,NA,NA
"37","2022-09-23_10h37.26.144",1002,"stroop",13,"yellow","green",NA,"f",1545.7,NA,NA,NA,NA,NA,NA,NA
"38","2022-09-23_10h37.26.144",1002,"stroop",14,"blue","blue",NA,"d",665.4,NA,NA,NA,NA,NA,NA,NA
"39","2022-09-23_10h37.26.144",1002,"stroop",15,"orange","orange",NA,"j",597.7,NA,NA,NA,NA,NA,NA,NA
"40","2022-09-23_10h37.26.144",1002,"stroop",16,"blue","blue",NA,"d",548,NA,NA,NA,NA,NA,NA,NA
"41","2022-09-23_10h37.26.144",1002,"stroop",17,"green","green",NA,"f",1465.7,NA,NA,NA,NA,NA,NA,NA
"42","2022-09-23_10h37.26.144",1002,"stroop",18,"orange","orange",NA,"j",764.6,NA,NA,NA,NA,NA,NA,NA
"43","2022-09-23_10h37.26.144",1002,"stroop",19,"yellow","orange",NA,"k",797.4,NA,NA,NA,NA,NA,NA,NA
"44","2022-09-23_10h37.26.144",1002,"stroop",20,"blue","orange",NA,"j",1702,NA,NA,NA,NA,NA,NA,NA
"45","2022-09-23_10h37.26.144",1002,"stroop",21,"orange","orange",NA,"j",599.2,NA,NA,NA,NA,NA,NA,NA
"46","2022-09-23_10h37.26.144",1002,"stroop",22,"green","green",NA,"f",783.9,NA,NA,NA,NA,NA,NA,NA
"47","2022-09-23_10h37.26.144",1002,"stroop",23,"orange","orange",NA,"j",866.7,NA,NA,NA,NA,NA,NA,NA
"48","2022-09-23_10h37.26.144",1002,"stroop",24,"orange","orange",NA,"j",483.2,NA,NA,NA,NA,NA,NA,NA
"49","2022-09-23_10h37.26.144",1002,"stroop",25,"yellow","green",NA,"f",2149.5,NA,NA,NA,NA,NA,NA,NA
"50","2022-09-23_10h37.26.144",1002,"stroop",26,"orange","green",NA,"f",1566.6,NA,NA,NA,NA,NA,NA,NA
"51","2022-09-23_10h37.26.144",1002,"stroop",27,"green","blue",NA,"d",1467,NA,NA,NA,NA,NA,NA,NA
"52","2022-09-23_10h37.26.144",1002,"stroop",28,"yellow","orange",NA,"j",1581,NA,NA,NA,NA,NA,NA,NA
"53","2022-09-23_10h37.26.144",1002,"stroop",29,"green","blue",NA,"d",1196.2,NA,NA,NA,NA,NA,NA,NA
"54","2022-09-23_10h37.26.144",1002,"stroop",30,"green","green",NA,"f",1266.1,NA,NA,NA,NA,NA,NA,NA
"55","2022-09-23_10h37.26.144",1002,"stroop",31,"yellow","green",NA,"f",1518.5,NA,NA,NA,NA,NA,NA,NA
"56","2022-09-23_10h37.26.144",1002,"stroop",32,"blue","yellow",NA,"j",1130.6,NA,NA,NA,NA,NA,NA,NA
"57","2022-09-23_10h37.26.144",1002,"stroop",33,"blue","blue",NA,"d",2231.6,NA,NA,NA,NA,NA,NA,NA
"58","2022-09-23_10h37.26.144",1002,"stroop",34,"green","green",NA,"f",967.2,NA,NA,NA,NA,NA,NA,NA
"59","2022-09-23_10h37.26.144",1002,"stroop",35,"green","green",NA,"f",514.6,NA,NA,NA,NA,NA,NA,NA
"60","2022-09-23_10h37.26.144",1002,"stroop",36,"yellow","yellow",NA,"k",866.5,NA,NA,NA,NA,NA,NA,NA
"61","2022-09-23_10h37.26.144",1002,"stroop",37,"orange","orange",NA,"j",616.4,NA,NA,NA,NA,NA,NA,NA
"62","2022-09-23_10h37.26.144",1002,"stroop",38,"yellow","yellow",NA,"k",716.2,NA,NA,NA,NA,NA,NA,NA
"63","2022-09-23_10h37.26.144",1002,"stroop",39,"yellow","blue",NA,"d",1250.5,NA,NA,NA,NA,NA,NA,NA
"64","2022-09-23_10h37.26.144",1002,"stroop",40,"orange","blue",NA,"d",716.2,NA,NA,NA,NA,NA,NA,NA
"65","2022-09-23_10h37.26.144",1002,"stroop",41,"blue","orange",NA,"j",2050,NA,NA,NA,NA,NA,NA,NA
"66","2022-09-23_10h37.26.144",1002,"stroop",42,"orange","orange",NA,"j",700.1,NA,NA,NA,NA,NA,NA,NA
"67","2022-09-23_10h37.26.144",1002,"stroop",43,"yellow","yellow",NA,"k",685.8,NA,NA,NA,NA,NA,NA,NA
"68","2022-09-23_10h37.26.144",1002,"stroop",44,"yellow","yellow",NA,"k",431.6,NA,NA,NA,NA,NA,NA,NA
"69","2022-09-23_10h37.26.144",1002,"stroop",45,"blue","blue",NA,"d",601.2,NA,NA,NA,NA,NA,NA,NA
"70","2022-09-23_10h37.26.144",1002,"stroop",46,"blue","blue",NA,"d",448.2,NA,NA,NA,NA,NA,NA,NA
"71","2022-09-23_10h37.26.144",1002,"stroop",47,"green","orange",NA,"j",1466.5,NA,NA,NA,NA,NA,NA,NA
"72","2022-09-23_10h37.26.144",1002,"stroop",48,"yellow","yellow",NA,"k",634,NA,NA,NA,NA,NA,NA,NA
"73","2022-09-23_10h37.26.144",1002,"stroop",49,"orange","orange",NA,"j",931.7,NA,NA,NA,NA,NA,NA,NA
"74","2022-09-23_10h37.26.144",1002,"stroop",50,"blue","blue",NA,"d",667.2,NA,NA,NA,NA,NA,NA,NA
"75","2022-09-23_10h37.26.144",1002,"stroop",51,"yellow","yellow",NA,"k",752.3,NA,NA,NA,NA,NA,NA,NA
"76","2022-09-23_10h37.26.144",1002,"stroop",52,"orange","yellow",NA,"k",868.3,NA,NA,NA,NA,NA,NA,NA
"77","2022-09-23_10h37.26.144",1002,"stroop",53,"blue","blue",NA,"d",582.1,NA,NA,NA,NA,NA,NA,NA
"78","2022-09-23_10h37.26.144",1002,"stroop",54,"yellow","orange",NA,"j",863.9,NA,NA,NA,NA,NA,NA,NA
"79","2022-09-23_10h37.26.144",1002,"stroop",55,"blue","green",NA,"f",832.7,NA,NA,NA,NA,NA,NA,NA
"80","2022-09-23_10h37.26.144",1002,"stroop",56,"blue","blue",NA,"d",696.8,NA,NA,NA,NA,NA,NA,NA
"81","2022-09-23_10h37.26.144",1002,"stroop",57,"green","yellow",NA,"k",1516.4,NA,NA,NA,NA,NA,NA,NA
"82","2022-09-23_10h37.26.144",1002,"stroop",58,"blue","yellow",NA,"k",433.7,NA,NA,NA,NA,NA,NA,NA
"83","2022-09-23_10h37.26.144",1002,"stroop",59,"blue","blue",NA,"d",641.5,NA,NA,NA,NA,NA,NA,NA
"84","2022-09-23_10h37.26.144",1002,"stroop",60,"yellow","yellow",NA,"k",666.7,NA,NA,NA,NA,NA,NA,NA
"85","2022-09-23_10h37.26.144",1002,"stroop",61,"yellow","orange",NA,"j",1049.9,NA,NA,NA,NA,NA,NA,NA
"86","2022-09-23_10h37.26.144",1002,"stroop",62,"orange","blue",NA,"d",1431,NA,NA,NA,NA,NA,NA,NA
"87","2022-09-23_10h37.26.144",1002,"stroop",63,"yellow","green",NA,"f",1116.1,NA,NA,NA,NA,NA,NA,NA
"88","2022-09-23_10h37.26.144",1002,"stroop",64,"yellow","green",NA,"f",497.3,NA,NA,NA,NA,NA,NA,NA
"89","2022-09-23_10h37.26.144",1002,"stroop",65,"blue","yellow",NA,"d",663.1,NA,NA,NA,NA,NA,NA,NA
"90","2022-09-23_10h37.26.144",1002,"stroop",66,"yellow","yellow",NA,"k",1399.3,NA,NA,NA,NA,NA,NA,NA
"91","2022-09-23_10h37.26.144",1002,"stroop",67,"blue","blue",NA,"d",698.4,NA,NA,NA,NA,NA,NA,NA
"92","2022-09-23_10h37.26.144",1002,"stroop",68,"blue","orange",NA,"j",3748,NA,NA,NA,NA,NA,NA,NA
"93","2022-09-23_10h37.26.144",1002,"stroop",69,"yellow","blue",NA,"d",1014.1,NA,NA,NA,NA,NA,NA,NA
"94","2022-09-23_10h37.26.144",1002,"stroop",70,"blue","orange",NA,"j",1333.9,NA,NA,NA,NA,NA,NA,NA
"95","2022-09-23_10h37.26.144",1002,"stroop",71,"green","green",NA,"f",497.5,NA,NA,NA,NA,NA,NA,NA
"96","2022-09-23_10h37.26.144",1002,"stroop",72,"orange","orange",NA,"j",1463,NA,NA,NA,NA,NA,NA,NA
"97","2022-09-23_10h37.26.144",1002,"stroop",73,"blue","blue",NA,"d",930.4,NA,NA,NA,NA,NA,NA,NA
"98","2022-09-23_10h37.26.144",1002,"stroop",74,"yellow","yellow",NA,"k",538.6,NA,NA,NA,NA,NA,NA,NA
"99","2022-09-23_10h37.26.144",1002,"stroop",75,"green","green",NA,"f",649.6,NA,NA,NA,NA,NA,NA,NA
"100","2022-09-23_10h37.26.144",1002,"stroop",76,"green","yellow",NA,"k",1833.1,NA,NA,NA,NA,NA,NA,NA
"101","2022-09-23_10h37.26.144",1002,"stroop",77,"green","orange",NA,"f",998.7,NA,NA,NA,NA,NA,NA,NA
"102","2022-09-23_10h37.26.144",1002,"stroop",78,"blue","blue",NA,"d",616.2,NA,NA,NA,NA,NA,NA,NA
"103","2022-09-23_10h37.26.144",1002,"stroop",79,"blue","yellow",NA,"k",1435.3,NA,NA,NA,NA,NA,NA,NA
"104","2022-09-23_10h37.26.144",1002,"stroop",80,"orange","yellow",NA,"j",832.5,NA,NA,NA,NA,NA,NA,NA
"105","2022-09-23_10h37.26.144",1002,"stroop",81,"orange","green",NA,"f",1565.3,NA,NA,NA,NA,NA,NA,NA
"106","2022-09-23_10h37.26.144",1002,"stroop",82,"green","green",NA,"f",1049,NA,NA,NA,NA,NA,NA,NA
"107","2022-09-23_10h37.26.144",1002,"stroop",83,"green","green",NA,"f",481.5,NA,NA,NA,NA,NA,NA,NA
"108","2022-09-23_10h37.26.144",1002,"stroop",84,"orange","green",NA,"f",1433.9,NA,NA,NA,NA,NA,NA,NA
"109","2022-09-23_10h37.26.144",1002,"stroop",85,"green","blue",NA,"d",1481.9,NA,NA,NA,NA,NA,NA,NA
"110","2022-09-23_10h37.26.144",1002,"stroop",86,"blue","yellow",NA,"k",1065.1,NA,NA,NA,NA,NA,NA,NA
"111","2022-09-23_10h37.26.144",1002,"stroop",87,"orange","yellow",NA,"k",729.6,NA,NA,NA,NA,NA,NA,NA
"112","2022-09-23_10h37.26.144",1002,"stroop",88,"orange","yellow",NA,"k",498.5,NA,NA,NA,NA,NA,NA,NA
"113","2022-09-23_10h37.26.144",1002,"stroop",89,"yellow","orange",NA,"j",696.8,NA,NA,NA,NA,NA,NA,NA
"114","2022-09-23_10h37.26.144",1002,"stroop",90,"yellow","yellow",NA,"k",631.8,NA,NA,NA,NA,NA,NA,NA
"115","2022-09-23_10h37.26.144",1002,"stroop",91,"orange","blue",NA,"d",980.7,NA,NA,NA,NA,NA,NA,NA
"116","2022-09-23_10h37.26.144",1002,"stroop",92,"green","yellow",NA,"k",1281.4,NA,NA,NA,NA,NA,NA,NA
"117","2022-09-23_10h37.26.144",1002,"stroop",93,"green","orange",NA,"j",822.3,NA,NA,NA,NA,NA,NA,NA
"118","2022-09-23_10h37.26.144",1002,"stroop",94,"yellow","yellow",NA,"k",682.7,NA,NA,NA,NA,NA,NA,NA
"119","2022-09-23_10h37.26.144",1002,"stroop",95,"orange","yellow",NA,"k",982.8,NA,NA,NA,NA,NA,NA,NA
"120","2022-09-23_10h37.26.144",1002,"stroop",96,"blue","green",NA,"f",852.3,NA,NA,NA,NA,NA,NA,NA
"121","2022-09-23_10h37.26.144",1002,"stroop",97,"green","green",NA,"f",482.9,NA,NA,NA,NA,NA,NA,NA
"122","2022-09-23_10h37.26.144",1002,"stroop",98,"orange","orange",NA,"j",801.8,NA,NA,NA,NA,NA,NA,NA
"123","2022-09-23_10h37.26.144",1002,"stroop",99,"blue","green",NA,"f",1166.5,NA,NA,NA,NA,NA,NA,NA
"124","2022-09-23_10h37.26.144",1002,"stroop",100,"yellow","blue",NA,"d",783.6,NA,NA,NA,NA,NA,NA,NA
"125","2022-09-23_10h37.26.144",1002,"stroop",101,"yellow","yellow",NA,"k",615.8,NA,NA,NA,NA,NA,NA,NA
"126","2022-09-23_10h37.26.144",1002,"stroop",102,"blue","orange",NA,"j",1347.3,NA,NA,NA,NA,NA,NA,NA
"127","2022-09-23_10h37.26.144",1002,"stroop",103,"yellow","yellow",NA,"k",2014.6,NA,NA,NA,NA,NA,NA,NA
"128","2022-09-23_10h37.26.144",1002,"stroop",104,"orange","orange",NA,"j",567.5,NA,NA,NA,NA,NA,NA,NA
"129","2022-09-23_10h37.26.144",1002,"stroop",105,"orange","blue",NA,"d",1564.4,NA,NA,NA,NA,NA,NA,NA
"130","2022-09-23_10h37.26.144",1002,"stroop",106,"blue","orange",NA,"j",1348.5,NA,NA,NA,NA,NA,NA,NA
"131","2022-09-23_10h37.26.144",1002,"stroop",107,"green","blue",NA,"d",731.7,NA,NA,NA,NA,NA,NA,NA
"132","2022-09-23_10h37.26.144",1002,"stroop",108,"green","orange",NA,"j",848.9,NA,NA,NA,NA,NA,NA,NA
"133","2022-09-23_10h37.26.144",1002,"stroop",109,"orange","orange",NA,"j",632.2,NA,NA,NA,NA,NA,NA,NA
"134","2022-09-23_10h37.26.144",1002,"stroop",110,"yellow","blue",NA,"d",748.8,NA,NA,NA,NA,NA,NA,NA
"135","2022-09-23_10h37.26.144",1002,"stroop",111,"green","green",NA,"f",847.2,NA,NA,NA,NA,NA,NA,NA
"136","2022-09-23_10h37.26.144",1002,"stroop",112,"yellow","green",NA,"f",616.4,NA,NA,NA,NA,NA,NA,NA
"137","2022-09-23_10h37.26.144",1002,"stroop",113,"yellow","orange",NA,"j",933.9,NA,NA,NA,NA,NA,NA,NA
"138","2022-09-23_10h37.26.144",1002,"stroop",114,"green","yellow",NA,"k",1316.4,NA,NA,NA,NA,NA,NA,NA
"139","2022-09-23_10h37.26.144",1002,"stroop",115,"orange","orange",NA,"j",549.9,NA,NA,NA,NA,NA,NA,NA
"140","2022-09-23_10h37.26.144",1002,"stroop",116,"yellow","yellow",NA,"k",649.9,NA,NA,NA,NA,NA,NA,NA
"141","2022-09-23_10h37.26.144",1002,"stroop",117,"yellow","yellow",NA,"k",800,NA,NA,NA,NA,NA,NA,NA
"142","2022-09-23_10h37.26.144",1002,"stroop",118,"blue","orange",NA,"j",1566.8,NA,NA,NA,NA,NA,NA,NA
"143","2022-09-23_10h37.26.144",1002,"stroop",119,"blue","yellow",NA,"k",2081.1,NA,NA,NA,NA,NA,NA,NA
"144","2022-09-23_10h37.26.144",1002,"stroop",120,"yellow","orange",NA,"j",747.6,NA,NA,NA,NA,NA,NA,NA
"145","2022-09-23_10h37.26.144",1002,"stroop",121,"yellow","yellow",NA,"k",597.1,NA,NA,NA,NA,NA,NA,NA
"146","2022-09-23_10h37.26.144",1002,"stroop",122,"orange","orange",NA,"k",468.6,NA,NA,NA,NA,NA,NA,NA
"147","2022-09-23_10h37.26.144",1002,"stroop",123,"orange","blue",NA,"d",1299.1,NA,NA,NA,NA,NA,NA,NA
"148","2022-09-23_10h37.26.144",1002,"stroop",124,"orange","orange",NA,"j",1180.8,NA,NA,NA,NA,NA,NA,NA
"149","2022-09-23_10h37.26.144",1002,"stroop",125,"orange","orange",NA,"j",482.6,NA,NA,NA,NA,NA,NA,NA
"150","2022-09-23_10h37.26.144",1002,"stroop",126,"green","green",NA,"f",965.9,NA,NA,NA,NA,NA,NA,NA
"151","2022-09-23_10h37.26.144",1002,"stroop",127,"yellow","yellow",NA,"k",680.8,NA,NA,NA,NA,NA,NA,NA
"152","2022-09-23_10h37.26.144",1002,"stroop",128,"orange","blue",NA,"d",1747.7,NA,NA,NA,NA,NA,NA,NA
"153","2022-09-23_10h37.26.144",1002,"stroop",129,"orange","orange",NA,"j",717.4,NA,NA,NA,NA,NA,NA,NA
"154","2022-09-23_10h37.26.144",1002,"stroop",130,"green","blue",NA,"d",1948.9,NA,NA,NA,NA,NA,NA,NA
"155","2022-09-23_10h37.26.144",1002,"stroop",131,"orange","orange",NA,"j",965.2,NA,NA,NA,NA,NA,NA,NA
"156","2022-09-23_10h37.26.144",1002,"stroop",132,"orange","green",NA,"f",650.1,NA,NA,NA,NA,NA,NA,NA
"157","2022-09-23_10h37.26.144",1002,"stroop",133,"blue","green",NA,"f",433.6,NA,NA,NA,NA,NA,NA,NA
"158","2022-09-23_10h37.26.144",1002,"stroop",134,"blue","blue",NA,"d",582.9,NA,NA,NA,NA,NA,NA,NA
"159","2022-09-23_10h37.26.144",1002,"stroop",135,"blue","yellow",NA,"k",716.3,NA,NA,NA,NA,NA,NA,NA
"160","2022-09-23_10h37.26.144",1002,"stroop",136,"yellow","yellow",NA,"k",533,NA,NA,NA,NA,NA,NA,NA
"161","2022-09-23_10h37.26.144",1002,"stroop",137,"orange","green",NA,"f",1584,NA,NA,NA,NA,NA,NA,NA
"162","2022-09-23_10h37.26.144",1002,"stroop",138,"yellow","green",NA,"f",417.1,NA,NA,NA,NA,NA,NA,NA
"163","2022-09-23_10h37.26.144",1002,"stroop",139,"green","green",NA,"f",455.5,NA,NA,NA,NA,NA,NA,NA
"164","2022-09-23_10h37.26.144",1002,"stroop",140,"blue","green",NA,"f",447.6,NA,NA,NA,NA,NA,NA,NA
"165","2022-09-23_10h37.26.144",1002,"stroop",141,"yellow","yellow",NA,"k",1014.6,NA,NA,NA,NA,NA,NA,NA
"166","2022-09-23_10h37.26.144",1002,"stroop",142,"green","green",NA,"f",700.7,NA,NA,NA,NA,NA,NA,NA
"167","2022-09-23_10h37.26.144",1002,"stroop",143,"green","blue",NA,"d",979.9,NA,NA,NA,NA,NA,NA,NA
"168","2022-09-23_10h37.26.144",1002,"stroop",144,"blue","yellow",NA,"k",1636.3,NA,NA,NA,NA,NA,NA,NA
"169","2022-09-23_10h37.26.144",1002,"stroop",145,"yellow","yellow",NA,"k",731.4,NA,NA,NA,NA,NA,NA,NA
"170","2022-09-23_10h37.26.144",1002,"stroop",146,"blue","green",NA,"d",1130.2,NA,NA,NA,NA,NA,NA,NA
"171","2022-09-23_10h37.26.144",1002,"stroop",147,"yellow","orange",NA,"j",2040.3,NA,NA,NA,NA,NA,NA,NA
"172","2022-09-23_10h37.26.144",1002,"stroop",148,"blue","blue",NA,"d",563.8,NA,NA,NA,NA,NA,NA,NA
"173","2022-09-23_10h37.26.144",1002,"stroop",149,"blue","blue",NA,"d",565.1,NA,NA,NA,NA,NA,NA,NA
"174","2022-09-23_10h37.26.144",1002,"stroop",150,"yellow","yellow",NA,"k",636,NA,NA,NA,NA,NA,NA,NA
"175","2022-09-23_10h37.26.144",1002,"stroop",151,"green","green",NA,"f",1247.3,NA,NA,NA,NA,NA,NA,NA
"176","2022-09-23_10h37.26.144",1002,"stroop",152,"blue","blue",NA,"d",932.5,NA,NA,NA,NA,NA,NA,NA
"177","2022-09-23_10h37.26.144",1002,"stroop",153,"green","blue",NA,"d",551.6,NA,NA,NA,NA,NA,NA,NA
"178","2022-09-23_10h37.26.144",1002,"stroop",154,"yellow","blue",NA,"d",516.2,NA,NA,NA,NA,NA,NA,NA
"179","2022-09-23_10h37.26.144",1002,"stroop",155,"green","blue",NA,"d",399.5,NA,NA,NA,NA,NA,NA,NA
"180","2022-09-23_10h37.26.144",1002,"stroop",156,"green","green",NA,"f",766.7,NA,NA,NA,NA,NA,NA,NA
"181","2022-09-23_10h37.26.144",1002,"stroop",157,"green","yellow",NA,"k",1165.7,NA,NA,NA,NA,NA,NA,NA
"182","2022-09-23_10h37.26.144",1002,"stroop",158,"yellow","yellow",NA,"k",534.2,NA,NA,NA,NA,NA,NA,NA
"183","2022-09-23_10h37.26.144",1002,"stroop",159,"blue","orange",NA,"j",632.7,NA,NA,NA,NA,NA,NA,NA
"184","2022-09-23_10h37.26.144",1002,"stroop",160,"orange","orange",NA,"j",366.2,NA,NA,NA,NA,NA,NA,NA
"185","2022-09-23_10h37.26.144",1002,"stroop",161,"green","orange",NA,"j",431.4,NA,NA,NA,NA,NA,NA,NA
"186","2022-09-23_10h37.26.144",1002,"stroop",162,"blue","blue",NA,"d",914.5,NA,NA,NA,NA,NA,NA,NA
"187","2022-09-23_10h37.26.144",1002,"stroop",163,"yellow","blue",NA,"d",454.5,NA,NA,NA,NA,NA,NA,NA
"188","2022-09-23_10h37.26.144",1002,"stroop",164,"blue","green",NA,"f",697.9,NA,NA,NA,NA,NA,NA,NA
"189","2022-09-23_10h37.26.144",1002,"stroop",165,"yellow","blue",NA,"d",782.5,NA,NA,NA,NA,NA,NA,NA
"190","2022-09-23_10h37.26.144",1002,"stroop",166,"green","orange",NA,"j",1264,NA,NA,NA,NA,NA,NA,NA
"191","2022-09-23_10h37.26.144",1002,"stroop",167,"orange","green",NA,"f",2597.3,NA,NA,NA,NA,NA,NA,NA
"192","2022-09-23_10h37.26.144",1002,"stroop",168,"green","green",NA,"f",531.1,NA,NA,NA,NA,NA,NA,NA
"193","2022-09-23_10h37.26.144",1002,"stroop",169,"orange","yellow",NA,"k",1050.1,NA,NA,NA,NA,NA,NA,NA
"194","2022-09-23_10h37.26.144",1002,"stroop",170,"orange","yellow",NA,"k",497.8,NA,NA,NA,NA,NA,NA,NA
"195","2022-09-23_10h37.26.144",1002,"stroop",171,"green","green",NA,"f",680.8,NA,NA,NA,NA,NA,NA,NA
"196","2022-09-23_10h37.26.144",1002,"stroop",172,"green","green",NA,"f",599.5,NA,NA,NA,NA,NA,NA,NA
"197","2022-09-23_10h37.26.144",1002,"stroop",173,"orange","orange",NA,"j",966.6,NA,NA,NA,NA,NA,NA,NA
"198","2022-09-23_10h37.26.144",1002,"stroop",174,"orange","blue",NA,"d",631.8,NA,NA,NA,NA,NA,NA,NA
"199","2022-09-23_10h37.26.144",1002,"stroop",175,"blue","blue",NA,"d",450.2,NA,NA,NA,NA,NA,NA,NA
"200","2022-09-23_10h37.26.144",1002,"stroop",176,"green","orange",NA,"j",748.8,NA,NA,NA,NA,NA,NA,NA
"201","2022-09-23_10h37.26.144",1002,"stroop",177,"green","yellow",NA,"k",586.8,NA,NA,NA,NA,NA,NA,NA
"202","2022-09-23_10h37.26.144",1002,"stroop",178,"yellow","yellow",NA,"k",599.6,NA,NA,NA,NA,NA,NA,NA
"203","2022-09-23_10h37.26.144",1002,"stroop",179,"orange","orange",NA,"j",1016.5,NA,NA,NA,NA,NA,NA,NA
"204","2022-09-23_10h37.26.144",1002,"stroop",180,"green","green",NA,"f",1716.3,NA,NA,NA,NA,NA,NA,NA
"205","2022-09-23_10h37.26.144",1002,"stroop",181,"green","yellow",NA,"k",1367.8,NA,NA,NA,NA,NA,NA,NA
"206","2022-09-23_10h37.26.144",1002,"stroop",182,"blue","green",NA,"f",2316,NA,NA,NA,NA,NA,NA,NA
"207","2022-09-23_10h37.26.144",1002,"stroop",183,"blue","blue",NA,"d",556,NA,NA,NA,NA,NA,NA,NA
"208","2022-09-23_10h37.26.144",1002,"stroop",184,"orange","orange",NA,"j",597.7,NA,NA,NA,NA,NA,NA,NA
"209","2022-09-23_10h37.26.144",1002,"stroop",185,"orange","yellow",NA,"k",1153.1,NA,NA,NA,NA,NA,NA,NA
"210","2022-09-23_10h37.26.144",1002,"stroop",186,"yellow","green",NA,"f",1350.1,NA,NA,NA,NA,NA,NA,NA
"211","2022-09-23_10h37.26.144",1002,"stroop",187,"orange","green",NA,"f",1564.8,NA,NA,NA,NA,NA,NA,NA
"212","2022-09-23_10h37.26.144",1002,"stroop",188,"blue","blue",NA,"d",580.9,NA,NA,NA,NA,NA,NA,NA
"213","2022-09-23_10h37.26.144",1002,"stroop",189,"green","orange",NA,"j",981,NA,NA,NA,NA,NA,NA,NA
"214","2022-09-23_10h37.26.144",1002,"stroop",190,"orange","green",NA,"f",1080.7,NA,NA,NA,NA,NA,NA,NA
"215","2022-09-23_10h37.26.144",1002,"stroop",191,"yellow","blue",NA,"d",1063.8,NA,NA,NA,NA,NA,NA,NA
"216","2022-09-23_10h37.26.144",1002,"stroop",192,"blue","blue",NA,"d",447.9,NA,NA,NA,NA,NA,NA,NA
"217","2022-09-23_10h37.26.144",1002,"emotional",1,"stiff","orange","neutral","j",2183.9,21,4.68,4.02,4.93,1.97,2.41,2.04
"218","2022-09-23_10h37.26.144",1002,"emotional",2,"crushed","orange","negative","j",649.6,10,2.21,5.52,3.36,1.74,2.87,2.69
"219","2022-09-23_10h37.26.144",1002,"emotional",3,"leader","green","positive","f",1232.8,74,7.63,6.27,7.88,1.59,2.18,1.6
"220","2022-09-23_10h37.26.144",1002,"emotional",4,"beach","green","positive","f",983.1,61,8.03,5.53,5.44,1.59,3.07,2.52
"221","2022-09-23_10h37.26.144",1002,"emotional",5,"rescue","green","positive","f",432.1,15,7.7,6.53,6.45,1.24,2.56,2.29
"222","2022-09-23_10h37.26.144",1002,"emotional",6,"troubled","orange","negative","j",814.9,31,2.17,5.94,3.91,1.21,2.36,2.33
"223","2022-09-23_10h37.26.144",1002,"emotional",7,"gloom","green","negative","f",802.6,14,1.88,3.83,3.55,1.23,2.33,2.07
"224","2022-09-23_10h37.26.144",1002,"emotional",8,"stupid","yellow","negative","k",646.1,24,2.31,4.72,2.98,1.37,2.71,2.18
"225","2022-09-23_10h37.26.144",1002,"emotional",9,"disaster","green","negative","f",847.7,26,1.73,6.33,3.52,1.13,2.7,2.42
"226","2022-09-23_10h37.26.144",1002,"emotional",10,"malaria","orange","negative","j",563.9,3,2.4,4.4,3.22,1.38,2.54,1.9
"227","2022-09-23_10h37.26.144",1002,"emotional",11,"insecure","orange","negative","j",431.9,3,2.36,5.56,2.33,1.33,2.34,1.95
"228","2022-09-23_10h37.26.144",1002,"emotional",12,"nonsense","blue","neutral","d",1214.1,13,4.61,4.17,4.9,1.63,2.02,1.55
"229","2022-09-23_10h37.26.144",1002,"emotional",13,"roach","green","negative","f",1032.3,2,2.35,6.64,4.82,1.7,2.64,2.94
"230","2022-09-23_10h37.26.144",1002,"emotional",14,"abuse","blue","negative","d",1586.5,18,1.8,6.83,3.69,1.23,2.7,2.94
"231","2022-09-23_10h37.26.144",1002,"emotional",15,"vomit","green","negative","f",846.3,3,2.06,5.75,3.58,1.57,2.84,2.45
"232","2022-09-23_10h37.26.144",1002,"emotional",16,"cruel","green","negative","f",463.9,15,1.97,5.68,4.24,1.67,2.65,2.84
"233","2022-09-23_10h37.26.144",1002,"emotional",17,"starving","blue","negative","d",747.2,6,2.39,5.61,3.63,1.82,2.53,2.1
"234","2022-09-23_10h37.26.144",1002,"emotional",18,"cliff","yellow","neutral","k",647.9,11,4.67,6.25,4.35,2.08,2.15,2.11
"235","2022-09-23_10h37.26.144",1002,"emotional",19,"seat","orange","neutral","j",614.7,54,4.95,2.95,4.84,0.98,1.72,1.88
"236","2022-09-23_10h37.26.144",1002,"emotional",20,"passion","blue","positive","d",497.2,28,8.03,7.26,6.13,1.27,2.57,2.24
"237","2022-09-23_10h37.26.144",1002,"emotional",21,"trophy","green","positive","f",781.1,8,7.78,5.39,6.44,1.22,2.44,2.32
"238","2022-09-23_10h37.26.144",1002,"emotional",22,"rage","blue","negative","d",1248.5,16,2.41,8.17,5.68,1.86,1.4,3.01
"239","2022-09-23_10h37.26.144",1002,"emotional",23,"fearful","blue","negative","d",516.4,13,2.25,6.33,3.64,1.18,2.28,2.18
"240","2022-09-23_10h37.26.144",1002,"emotional",24,"romantic","orange","positive","f",933,32,8.32,7.59,6.08,1,2.07,2.29
"241","2022-09-23_10h37.26.144",1002,"emotional",25,"afraid","orange","negative","j",1183.4,57,2,6.67,3.98,1.28,2.54,2.63
"242","2022-09-23_10h37.26.144",1002,"emotional",26,"miracle","orange","positive","j",399,16,8.6,7.65,5.35,0.71,1.67,2.58
"243","2022-09-23_10h37.26.144",1002,"emotional",27,"merry","orange","positive","j",383.1,8,7.9,5.9,6.64,1.49,2.42,1.66
"244","2022-09-23_10h37.26.144",1002,"emotional",28,"jail","yellow","negative","k",582.8,21,1.95,5.49,3.81,1.27,2.67,2.71
"245","2022-09-23_10h37.26.144",1002,"emotional",29,"stove","yellow","neutral","k",2051.3,15,4.98,4.51,5.36,1.69,2.14,1.87
"246","2022-09-23_10h37.26.144",1002,"emotional",30,"cannon","yellow","neutral","k",365.1,7,4.9,4.71,5.17,2.2,2.84,2.29
"247","2022-09-23_10h37.26.144",1002,"emotional",31,"elbow","green","neutral","d",668.1,10,5.12,3.81,4.88,0.92,2.14,1.52
"248","2022-09-23_10h37.26.144",1002,"emotional",32,"delight","yellow","positive","k",1317,29,8.26,5.44,5.79,1.04,2.88,2.24
"249","2022-09-23_10h37.26.144",1002,"emotional",33,"hostage","blue","negative","d",697.9,2,2.2,6.76,2.83,1.8,2.63,2.32
"250","2022-09-23_10h37.26.144",1002,"emotional",34,"handsome","orange","positive","j",914.3,40,7.93,5.95,5.19,1.47,2.73,2.22
"251","2022-09-23_10h37.26.144",1002,"emotional",35,"hate","orange","negative","j",646.5,42,2.12,6.95,5.05,1.72,2.56,2.95
"252","2022-09-23_10h37.26.144",1002,"emotional",36,"pillow","green","positive","f",816.9,8,7.92,2.97,4.56,1.4,2.52,2.17
"253","2022-09-23_10h37.26.144",1002,"emotional",37,"poison","yellow","negative","k",1665,10,1.98,6.05,3.1,1.44,2.82,2.44
"254","2022-09-23_10h37.26.144",1002,"emotional",38,"defeated","yellow","negative","k",497.4,15,2.34,5.09,3.11,1.66,3,2.34
"255","2022-09-23_10h37.26.144",1002,"emotional",39,"mutilate","green","negative","f",815.5,3,1.82,6.41,3.41,1.45,2.94,2.71
"256","2022-09-23_10h37.26.144",1002,"emotional",40,"pain","orange","negative","j",965.7,88,2.13,6.5,3.71,1.81,2.49,2.53
"257","2022-09-23_10h37.26.144",1002,"emotional",41,"misery","yellow","negative","k",1649.1,15,1.93,5.17,2.55,1.6,2.69,1.45
"258","2022-09-23_10h37.26.144",1002,"emotional",42,"joke","blue","positive","d",1499,22,8.1,6.74,6.15,1.36,1.84,1.86
"259","2022-09-23_10h37.26.144",1002,"emotional",43,"curtains","blue","neutral","d",465.6,8,4.83,3.67,5.05,0.83,1.83,1.56
"260","2022-09-23_10h37.26.144",1002,"emotional",44,"locker","orange","neutral","j",1016.9,9,5.19,3.38,5.36,1.31,2.13,1.87
"261","2022-09-23_10h37.26.144",1002,"emotional",45,"taxi","green","neutral","f",1400.3,16,5,3.41,4.64,1.96,2.14,1.83
"262","2022-09-23_10h37.26.144",1002,"emotional",46,"swamp","blue","neutral","d",1316.1,5,5.14,4.86,5.29,2.24,2.36,1.63
"263","2022-09-23_10h37.26.144",1002,"emotional",47,"phase","green","neutral","f",730.9,72,5.17,3.98,4.65,0.79,1.82,1.72
"264","2022-09-23_10h37.26.144",1002,"emotional",48,"hurt","green","negative","f",630.7,37,1.9,5.85,3.33,1.26,2.49,2.22
"265","2022-09-23_10h37.26.144",1002,"emotional",49,"kettle","blue","neutral","d",968.7,3,5.22,3.22,5,0.91,2.23,1.4
"266","2022-09-23_10h37.26.144",1002,"emotional",50,"admired","blue","positive","d",530.2,17,7.74,6.11,7.53,1.84,2.36,1.94
"267","2022-09-23_10h37.26.144",1002,"emotional",51,"blase","green","neutral","f",764.4,7,4.89,3.94,4.57,1.16,1.76,1.44
"268","2022-09-23_10h37.26.144",1002,"emotional",52,"chair","orange","neutral","j",949.2,66,5.08,3.15,4.56,0.98,1.77,1.6
"269","2022-09-23_10h37.26.144",1002,"emotional",53,"engine","green","neutral","f",1099.1,50,5.2,3.98,5,1.18,2.33,1.77
"270","2022-09-23_10h37.26.144",1002,"emotional",54,"volcano","orange","neutral","j",2298.3,2,4.84,6.33,3.25,2.14,2.21,1.97
"271","2022-09-23_10h37.26.144",1002,"emotional",55,"kiss","green","positive","f",918.4,17,8.26,7.32,6.93,1.54,2.03,2.28
"272","2022-09-23_10h37.26.144",1002,"emotional",56,"thrill","orange","positive","j",631.4,5,8.05,8.02,6.54,1.48,1.65,2.3
"273","2022-09-23_10h37.26.144",1002,"emotional",57,"laughter","orange","positive","j",682.6,22,8.45,6.75,6.45,1.08,2.5,2.45
"274","2022-09-23_10h37.26.144",1002,"emotional",58,"terrible","blue","negative","d",697.9,45,1.93,6.27,3.58,1.44,2.44,2.34
"275","2022-09-23_10h37.26.144",1002,"emotional",59,"champion","blue","positive","d",568.6,23,8.44,5.85,6.5,0.9,3.15,2.85
"276","2022-09-23_10h37.26.144",1002,"emotional",60,"drown","orange","negative","j",680.7,3,1.92,6.57,2.86,1.48,2.33,1.99
"277","2022-09-23_10h37.26.144",1002,"emotional",61,"engaged","blue","positive","d",631.6,47,8,6.77,6.49,1.38,2.07,2.22
"278","2022-09-23_10h37.26.144",1002,"emotional",62,"liberty","yellow","positive","k",949.7,46,7.98,5.6,6.29,1.22,2.65,2.44
"279","2022-09-23_10h37.26.144",1002,"emotional",63,"burial","yellow","negative","k",499.9,11,2.05,5.08,3.55,1.41,2.4,1.95
"280","2022-09-23_10h37.26.144",1002,"emotional",64,"knot","green","neutral","f",799.7,8,4.64,4.07,4.67,1.36,2.15,1.65
"281","2022-09-23_10h37.26.144",1002,"emotional",65,"iron","blue","neutral","d",1266.4,43,4.9,3.76,5.1,1.02,2.06,1.27
"282","2022-09-23_10h37.26.144",1002,"emotional",66,"fabric","orange","neutral","j",800,15,5.3,4.14,5.03,1.2,1.98,1.61
"283","2022-09-23_10h37.26.144",1002,"emotional",67,"accident","green","negative","f",1115.6,33,2.05,6.26,3.76,1.19,2.87,2.22
"284","2022-09-23_10h37.26.144",1002,"emotional",68,"sick","yellow","negative","k",2281.4,51,1.9,4.29,3.04,1.14,2.45,1.65
"285","2022-09-23_10h37.26.144",1002,"emotional",69,"cabinet","orange","neutral","j",830,17,5.05,3.43,4.73,0.31,1.85,1.66
"286","2022-09-23_10h37.26.144",1002,"emotional",70,"treasure","yellow","positive","k",733.1,4,8.27,6.75,6.36,0.9,2.3,2.42
"287","2022-09-23_10h37.26.144",1002,"emotional",71,"lucky","green","positive","d",651,21,8.17,6.53,6.05,1.06,2.34,2.25
"288","2022-09-23_10h37.26.144",1002,"emotional",72,"crucify","blue","negative","d",682.9,2,2.23,6.47,3.74,1.72,2.47,2.48
"289","2022-09-23_10h37.26.144",1002,"emotional",73,"cheer","green","positive","f",585.7,8,8.1,6.12,6,1.17,2.45,2.06
"290","2022-09-23_10h37.26.144",1002,"emotional",74,"dreadful","yellow","negative","k",965.5,10,2.26,5.84,4.1,1.91,2.62,2.36
"291","2022-09-23_10h37.26.144",1002,"emotional",75,"sexy","yellow","positive","k",497.7,2,8.02,7.36,6.82,1.12,1.91,2.13
"292","2022-09-23_10h37.26.144",1002,"emotional",76,"fame","green","positive","f",781.3,18,7.93,6.55,6.85,1.29,2.46,2.14
"293","2022-09-23_10h37.26.144",1002,"emotional",77,"proud","yellow","positive","k",715.4,50,8.03,5.56,6.74,1.56,3.01,2.73
"294","2022-09-23_10h37.26.144",1002,"emotional",78,"divorce","orange","negative","j",713.6,29,2.22,6.33,3.26,1.88,2.71,2.24
"295","2022-09-23_10h37.26.144",1002,"emotional",79,"rainbow","blue","positive","d",1731,4,8.14,4.64,4.72,1.23,2.88,2.37
"296","2022-09-23_10h37.26.144",1002,"emotional",80,"patent","blue","neutral","d",479.3,35,5.29,3.5,4.9,1.08,1.84,1.79
"297","2022-09-23_10h37.26.144",1002,"emotional",81,"pleasure","orange","positive","j",1415.8,62,8.28,5.74,6.15,0.92,2.81,2.31
"298","2022-09-23_10h37.26.144",1002,"emotional",82,"honor","yellow","positive","k",549.7,66,7.66,5.9,6.7,1.24,1.83,2.04
"299","2022-09-23_10h37.26.144",1002,"emotional",83,"tool","yellow","neutral","k",550.8,40,5.19,4.33,5.67,1.27,1.78,1.62
"300","2022-09-23_10h37.26.144",1002,"emotional",84,"bench","green","neutral","f",902.3,35,4.61,3.59,4.68,1.4,2.07,1.38
"301","2022-09-23_10h37.26.144",1002,"emotional",85,"sunset","green","positive","f",467.2,14,7.68,4.2,5.66,1.72,2.99,2.08
"302","2022-09-23_10h37.26.144",1002,"emotional",86,"clock","green","neutral","f",400.8,20,5.14,4.02,4.67,1.54,2.54,1.97
"303","2022-09-23_10h37.26.144",1002,"emotional",87,"sunlight","yellow","positive","k",1052.9,17,7.76,6.1,5.63,1.43,2.3,2.15
"304","2022-09-23_10h37.26.144",1002,"emotional",88,"finger","yellow","neutral","k",499.9,40,5.29,3.78,5.05,1.42,2.42,1.7
"305","2022-09-23_10h37.26.144",1002,"emotional",89,"ulcer","yellow","negative","k",516.7,5,1.78,6.12,4.17,1.17,2.68,2.22
"306","2022-09-23_10h37.26.144",1002,"emotional",90,"chin","blue","neutral","d",716.5,27,5.29,3.31,5.26,1.27,1.98,1.48
"307","2022-09-23_10h37.26.144",1002,"emotional",91,"contents","yellow","neutral","k",1415.3,16,4.89,4.32,4.85,0.89,2.14,1.49
"308","2022-09-23_10h37.26.144",1002,"emotional",92,"triumph","blue","positive","d",564,22,7.8,5.78,6.98,1.83,2.6,2.2
"309","2022-09-23_10h37.26.144",1002,"emotional",93,"birthday","yellow","positive","k",1282,18,7.84,6.68,5.89,1.92,2.11,2.61
"310","2022-09-23_10h37.26.144",1002,"emotional",94,"umbrella","green","neutral","f",748.3,8,5.16,3.68,5.42,1.57,1.99,1.91
"311","2022-09-23_10h37.26.144",1002,"emotional",95,"beauty","orange","positive","j",717,71,7.82,4.95,5.53,1.16,2.57,2.1
"312","2022-09-23_10h37.26.144",1002,"emotional",96,"despise","blue","negative","d",831.7,7,2.03,6.28,4.72,1.38,2.43,2.8
"313","2022-09-23_10h37.26.144",1002,"emotional",97,"sunrise","blue","positive","d",515.1,10,7.86,5.06,5.29,1.35,3.05,2.41
"314","2022-09-23_10h37.26.144",1002,"emotional",98,"useless","blue","negative","d",398,17,2.13,4.87,3.92,1.42,2.58,2.62
"315","2022-09-23_10h37.26.144",1002,"emotional",99,"hatred","yellow","negative","k",898.8,20,1.98,6.66,4.3,1.92,2.56,2.76
"316","2022-09-23_10h37.26.144",1002,"emotional",100,"sickness","orange","negative","f",832,6,2.25,5.61,3.84,1.71,2.67,2.5
"317","2022-09-23_10h37.26.144",1002,"emotional",101,"pencil","green","neutral","f",1968,34,5.22,3.14,4.78,0.68,1.9,1.73
"318","2022-09-23_10h37.26.144",1002,"emotional",102,"ankle","yellow","neutral","k",829.5,8,5.27,4.16,4.77,1.54,2.03,1.74
"319","2022-09-23_10h37.26.144",1002,"emotional",103,"paradise","yellow","positive","k",447.8,12,8.72,5.12,6.03,0.6,3.38,2.79
"320","2022-09-23_10h37.26.144",1002,"emotional",104,"kerosene","yellow","neutral","k",466.1,6,4.8,4.34,4.63,1.59,2.51,1.99
"321","2022-09-23_10h37.26.144",1002,"emotional",105,"desire","orange","positive","j",914.3,79,7.69,7.35,6.49,1.39,1.76,1.83
"322","2022-09-23_10h37.26.144",1002,"emotional",106,"barrel","blue","neutral","d",1234,24,5.05,3.36,4.89,1.46,2.28,1.57
"323","2022-09-23_10h37.26.144",1002,"emotional",107,"lonely","blue","negative","d",516.2,25,2.17,4.51,2.95,1.76,2.68,2.12
"324","2022-09-23_10h37.26.144",1002,"emotional",108,"context","blue","neutral","d",399.7,2,5.2,4.22,5.17,1.38,2.24,1.39
"325","2022-09-23_10h37.26.144",1002,"emotional",109,"corridor","yellow","neutral","k",899.8,17,4.88,3.63,5,1.14,2.41,1.48
"326","2022-09-23_10h37.26.144",1002,"emotional",110,"column","orange","neutral","j",672.2,71,5.17,3.62,4.81,0.85,1.91,1.58
"327","2022-09-23_10h37.26.144",1002,"emotional",111,"comedy","orange","positive","j",549.9,39,8.37,5.85,5.44,0.94,2.81,2.08
"328","2022-09-23_10h37.26.144",1002,"emotional",112,"tragedy","green","negative","f",783,49,1.78,6.24,3.5,1.31,2.64,2.34
"329","2022-09-23_10h37.26.144",1002,"emotional",113,"victim","green","negative","f",400.3,27,2.18,6.06,2.69,1.48,2.32,2.04
"330","2022-09-23_10h37.26.144",1002,"emotional",114,"mantel","yellow","neutral","k",783.5,3,4.93,3.27,4.95,1.4,2.23,1.61
"331","2022-09-23_10h37.26.144",1002,"emotional",115,"loved","blue","positive","d",630.5,56,8.64,6.38,6.62,0.71,2.68,2.53
"332","2022-09-23_10h37.26.144",1002,"emotional",116,"improve","blue","positive","d",679.9,39,7.65,5.69,6.08,1.16,2.15,2.25
"333","2022-09-23_10h37.26.144",1002,"emotional",117,"tease","orange","neutral","j",981.4,6,4.84,5.87,4.67,2.51,2.56,2.37
"334","2022-09-23_10h37.26.144",1002,"emotional",118,"snuggle","yellow","positive","k",782.4,4,7.92,4.16,5.66,1.24,2.8,2.47
"335","2022-09-23_10h37.26.144",1002,"emotional",119,"aloof","blue","neutral","d",885.9,5,4.9,4.28,4.69,1.92,2.1,1.92
"336","2022-09-23_10h37.26.144",1002,"emotional",120,"hammer","orange","neutral","j",997.4,9,4.88,4.58,4.75,1.16,2.02,1.88
"337","2022-09-23_10h37.41.566",1004,"practice",1,"green","yellow",NA,"k",2045,NA,NA,NA,NA,NA,NA,NA
"338","2022-09-23_10h37.41.566",1004,"practice",2,"blue","blue",NA,"d",842,NA,NA,NA,NA,NA,NA,NA
"339","2022-09-23_10h37.41.566",1004,"practice",3,"green","blue",NA,"d",1095,NA,NA,NA,NA,NA,NA,NA
"340","2022-09-23_10h37.41.566",1004,"practice",4,"blue","blue",NA,"d",547,NA,NA,NA,NA,NA,NA,NA
"341","2022-09-23_10h37.41.566",1004,"practice",5,"green","green",NA,"f",1211,NA,NA,NA,NA,NA,NA,NA
"342","2022-09-23_10h37.41.566",1004,"practice",6,"orange","blue",NA,"d",796,NA,NA,NA,NA,NA,NA,NA
"343","2022-09-23_10h37.41.566",1004,"practice",7,"yellow","blue",NA,"d",1421,NA,NA,NA,NA,NA,NA,NA
"344","2022-09-23_10h37.41.566",1004,"practice",8,"yellow","green",NA,"f",3461,NA,NA,NA,NA,NA,NA,NA
"345","2022-09-23_10h37.41.566",1004,"practice",9,"green","green",NA,"f",932,NA,NA,NA,NA,NA,NA,NA
"346","2022-09-23_10h37.41.566",1004,"practice",10,"orange","orange",NA,"j",1292,NA,NA,NA,NA,NA,NA,NA
"347","2022-09-23_10h37.41.566",1004,"practice",11,"yellow","yellow",NA,"k",683,NA,NA,NA,NA,NA,NA,NA
"348","2022-09-23_10h37.41.566",1004,"practice",12,"green","orange",NA,"j",1797,NA,NA,NA,NA,NA,NA,NA
"349","2022-09-23_10h37.41.566",1004,"practice",13,"orange","orange",NA,"j",728,NA,NA,NA,NA,NA,NA,NA
"350","2022-09-23_10h37.41.566",1004,"practice",14,"orange","yellow",NA,"k",2274,NA,NA,NA,NA,NA,NA,NA
"351","2022-09-23_10h37.41.566",1004,"practice",15,"yellow","orange",NA,"j",2576,NA,NA,NA,NA,NA,NA,NA
"352","2022-09-23_10h37.41.566",1004,"practice",16,"blue","blue",NA,"d",1000,NA,NA,NA,NA,NA,NA,NA
"353","2022-09-23_10h37.41.566",1004,"practice",17,"blue","orange",NA,"j",2263,NA,NA,NA,NA,NA,NA,NA
"354","2022-09-23_10h37.41.566",1004,"practice",18,"blue","yellow",NA,"k",1363,NA,NA,NA,NA,NA,NA,NA
"355","2022-09-23_10h37.41.566",1004,"practice",19,"orange","green",NA,"f",2448,NA,NA,NA,NA,NA,NA,NA
"356","2022-09-23_10h37.41.566",1004,"practice",20,"yellow","yellow",NA,"k",2382,NA,NA,NA,NA,NA,NA,NA
"357","2022-09-23_10h37.41.566",1004,"practice",21,"green","green",NA,"f",1589,NA,NA,NA,NA,NA,NA,NA
"358","2022-09-23_10h37.41.566",1004,"practice",22,"yellow","yellow",NA,"k",697,NA,NA,NA,NA,NA,NA,NA
"359","2022-09-23_10h37.41.566",1004,"practice",23,"orange","orange",NA,"j",1163,NA,NA,NA,NA,NA,NA,NA
"360","2022-09-23_10h37.41.566",1004,"practice",24,"blue","green",NA,"d",632,NA,NA,NA,NA,NA,NA,NA
"361","2022-09-23_10h37.41.566",1004,"stroop",1,"blue","blue",NA,"d",599,NA,NA,NA,NA,NA,NA,NA
"362","2022-09-23_10h37.41.566",1004,"stroop",2,"green","green",NA,"f",817,NA,NA,NA,NA,NA,NA,NA
"363","2022-09-23_10h37.41.566",1004,"stroop",3,"green","green",NA,"f",598,NA,NA,NA,NA,NA,NA,NA
"364","2022-09-23_10h37.41.566",1004,"stroop",4,"blue","blue",NA,"d",512,NA,NA,NA,NA,NA,NA,NA
"365","2022-09-23_10h37.41.566",1004,"stroop",5,"blue","green",NA,"f",611,NA,NA,NA,NA,NA,NA,NA
"366","2022-09-23_10h37.41.566",1004,"stroop",6,"green","orange",NA,"j",979,NA,NA,NA,NA,NA,NA,NA
"367","2022-09-23_10h37.41.566",1004,"stroop",7,"blue","green",NA,"f",902,NA,NA,NA,NA,NA,NA,NA
"368","2022-09-23_10h37.41.566",1004,"stroop",8,"blue","orange",NA,"f",632,NA,NA,NA,NA,NA,NA,NA
"369","2022-09-23_10h37.41.566",1004,"stroop",9,"orange","orange",NA,"j",1046,NA,NA,NA,NA,NA,NA,NA
"370","2022-09-23_10h37.41.566",1004,"stroop",10,"yellow","yellow",NA,"k",604,NA,NA,NA,NA,NA,NA,NA
"371","2022-09-23_10h37.41.566",1004,"stroop",11,"orange","yellow",NA,"k",1617,NA,NA,NA,NA,NA,NA,NA
"372","2022-09-23_10h37.41.566",1004,"stroop",12,"orange","green",NA,"f",914,NA,NA,NA,NA,NA,NA,NA
"373","2022-09-23_10h37.41.566",1004,"stroop",13,"orange","orange",NA,"j",866,NA,NA,NA,NA,NA,NA,NA
"374","2022-09-23_10h37.41.566",1004,"stroop",14,"blue","yellow",NA,"k",681,NA,NA,NA,NA,NA,NA,NA
"375","2022-09-23_10h37.41.566",1004,"stroop",15,"blue","blue",NA,"d",615,NA,NA,NA,NA,NA,NA,NA
"376","2022-09-23_10h37.41.566",1004,"stroop",16,"yellow","blue",NA,"d",899,NA,NA,NA,NA,NA,NA,NA
"377","2022-09-23_10h37.41.566",1004,"stroop",17,"blue","blue",NA,"d",581,NA,NA,NA,NA,NA,NA,NA
"378","2022-09-23_10h37.41.566",1004,"stroop",18,"yellow","yellow",NA,"k",681,NA,NA,NA,NA,NA,NA,NA
"379","2022-09-23_10h37.41.566",1004,"stroop",19,"yellow","blue",NA,"d",648,NA,NA,NA,NA,NA,NA,NA
"380","2022-09-23_10h37.41.566",1004,"stroop",20,"orange","yellow",NA,"k",616,NA,NA,NA,NA,NA,NA,NA
"381","2022-09-23_10h37.41.566",1004,"stroop",21,"green","green",NA,"f",635,NA,NA,NA,NA,NA,NA,NA
"382","2022-09-23_10h37.41.566",1004,"stroop",22,"blue","blue",NA,"d",581,NA,NA,NA,NA,NA,NA,NA
"383","2022-09-23_10h37.41.566",1004,"stroop",23,"orange","orange",NA,"j",717,NA,NA,NA,NA,NA,NA,NA
"384","2022-09-23_10h37.41.566",1004,"stroop",24,"green","blue",NA,"d",547,NA,NA,NA,NA,NA,NA,NA
"385","2022-09-23_10h37.41.566",1004,"stroop",25,"blue","blue",NA,"d",567,NA,NA,NA,NA,NA,NA,NA
"386","2022-09-23_10h37.41.566",1004,"stroop",26,"blue","blue",NA,"d",515,NA,NA,NA,NA,NA,NA,NA
"387","2022-09-23_10h37.41.566",1004,"stroop",27,"blue","blue",NA,"d",414,NA,NA,NA,NA,NA,NA,NA
"388","2022-09-23_10h37.41.566",1004,"stroop",28,"blue","blue",NA,"d",400,NA,NA,NA,NA,NA,NA,NA
"389","2022-09-23_10h37.41.566",1004,"stroop",29,"orange","orange",NA,"j",632,NA,NA,NA,NA,NA,NA,NA
"390","2022-09-23_10h37.41.566",1004,"stroop",30,"yellow","green",NA,"f",871,NA,NA,NA,NA,NA,NA,NA
"391","2022-09-23_10h37.41.566",1004,"stroop",31,"orange","orange",NA,"j",727,NA,NA,NA,NA,NA,NA,NA
"392","2022-09-23_10h37.41.566",1004,"stroop",32,"green","green",NA,"f",850,NA,NA,NA,NA,NA,NA,NA
"393","2022-09-23_10h37.41.566",1004,"stroop",33,"orange","orange",NA,"j",648,NA,NA,NA,NA,NA,NA,NA
"394","2022-09-23_10h37.41.566",1004,"stroop",34,"yellow","yellow",NA,"k",499,NA,NA,NA,NA,NA,NA,NA
"395","2022-09-23_10h37.41.566",1004,"stroop",35,"green","yellow",NA,"k",482,NA,NA,NA,NA,NA,NA,NA
"396","2022-09-23_10h37.41.566",1004,"stroop",36,"yellow","blue",NA,"d",795,NA,NA,NA,NA,NA,NA,NA
"397","2022-09-23_10h37.41.566",1004,"stroop",37,"orange","orange",NA,"j",547,NA,NA,NA,NA,NA,NA,NA
"398","2022-09-23_10h37.41.566",1004,"stroop",38,"yellow","yellow",NA,"k",647,NA,NA,NA,NA,NA,NA,NA
"399","2022-09-23_10h37.41.566",1004,"stroop",39,"green","orange",NA,"j",613,NA,NA,NA,NA,NA,NA,NA
"400","2022-09-23_10h37.41.566",1004,"stroop",40,"green","green",NA,"f",581,NA,NA,NA,NA,NA,NA,NA
"401","2022-09-23_10h37.41.566",1004,"stroop",41,"orange","orange",NA,"j",957,NA,NA,NA,NA,NA,NA,NA
"402","2022-09-23_10h37.41.566",1004,"stroop",42,"blue","blue",NA,"d",516,NA,NA,NA,NA,NA,NA,NA
"403","2022-09-23_10h37.41.566",1004,"stroop",43,"blue","yellow",NA,"k",671,NA,NA,NA,NA,NA,NA,NA
"404","2022-09-23_10h37.41.566",1004,"stroop",44,"blue","green",NA,"f",1778,NA,NA,NA,NA,NA,NA,NA
"405","2022-09-23_10h37.41.566",1004,"stroop",45,"orange","green",NA,"f",464,NA,NA,NA,NA,NA,NA,NA
"406","2022-09-23_10h37.41.566",1004,"stroop",46,"yellow","green",NA,"f",406,NA,NA,NA,NA,NA,NA,NA
"407","2022-09-23_10h37.41.566",1004,"stroop",47,"orange","orange",NA,"j",578,NA,NA,NA,NA,NA,NA,NA
"408","2022-09-23_10h37.41.566",1004,"stroop",48,"orange","green",NA,"f",980,NA,NA,NA,NA,NA,NA,NA
"409","2022-09-23_10h37.41.566",1004,"stroop",49,"yellow","orange",NA,"j",706,NA,NA,NA,NA,NA,NA,NA
"410","2022-09-23_10h37.41.566",1004,"stroop",50,"blue","blue",NA,"d",567,NA,NA,NA,NA,NA,NA,NA
"411","2022-09-23_10h37.41.566",1004,"stroop",51,"green","green",NA,"f",1437,NA,NA,NA,NA,NA,NA,NA
"412","2022-09-23_10h37.41.566",1004,"stroop",52,"yellow","orange",NA,"j",597,NA,NA,NA,NA,NA,NA,NA
"413","2022-09-23_10h37.41.566",1004,"stroop",53,"green","green",NA,"f",1283,NA,NA,NA,NA,NA,NA,NA
"414","2022-09-23_10h37.41.566",1004,"stroop",54,"yellow","blue",NA,"d",481,NA,NA,NA,NA,NA,NA,NA
"415","2022-09-23_10h37.41.566",1004,"stroop",55,"blue","blue",NA,"d",570,NA,NA,NA,NA,NA,NA,NA
"416","2022-09-23_10h37.41.566",1004,"stroop",56,"orange","blue",NA,"d",416,NA,NA,NA,NA,NA,NA,NA
"417","2022-09-23_10h37.41.566",1004,"stroop",57,"yellow","yellow",NA,"k",650,NA,NA,NA,NA,NA,NA,NA
"418","2022-09-23_10h37.41.566",1004,"stroop",58,"orange","yellow",NA,"k",477,NA,NA,NA,NA,NA,NA,NA
"419","2022-09-23_10h37.41.566",1004,"stroop",59,"yellow","yellow",NA,"k",464,NA,NA,NA,NA,NA,NA,NA
"420","2022-09-23_10h37.41.566",1004,"stroop",60,"yellow","orange",NA,"j",603,NA,NA,NA,NA,NA,NA,NA
"421","2022-09-23_10h37.41.566",1004,"stroop",61,"blue","blue",NA,"d",681,NA,NA,NA,NA,NA,NA,NA
"422","2022-09-23_10h37.41.566",1004,"stroop",62,"yellow","yellow",NA,"k",614,NA,NA,NA,NA,NA,NA,NA
"423","2022-09-23_10h37.41.566",1004,"stroop",63,"blue","blue",NA,"d",534,NA,NA,NA,NA,NA,NA,NA
"424","2022-09-23_10h37.41.566",1004,"stroop",64,"green","green",NA,"f",590,NA,NA,NA,NA,NA,NA,NA
"425","2022-09-23_10h37.41.566",1004,"stroop",65,"orange","orange",NA,"j",682,NA,NA,NA,NA,NA,NA,NA
"426","2022-09-23_10h37.41.566",1004,"stroop",66,"yellow","orange",NA,"j",420,NA,NA,NA,NA,NA,NA,NA
"427","2022-09-23_10h37.41.566",1004,"stroop",67,"green","green",NA,"f",630,NA,NA,NA,NA,NA,NA,NA
"428","2022-09-23_10h37.41.566",1004,"stroop",68,"green","orange",NA,"f",397,NA,NA,NA,NA,NA,NA,NA
"429","2022-09-23_10h37.41.566",1004,"stroop",69,"orange","blue",NA,"d",667,NA,NA,NA,NA,NA,NA,NA
"430","2022-09-23_10h37.41.566",1004,"stroop",70,"yellow","yellow",NA,"k",580,NA,NA,NA,NA,NA,NA,NA
"431","2022-09-23_10h37.41.566",1004,"stroop",71,"orange","orange",NA,"j",1201,NA,NA,NA,NA,NA,NA,NA
"432","2022-09-23_10h37.41.566",1004,"stroop",72,"orange","yellow",NA,"k",681,NA,NA,NA,NA,NA,NA,NA
"433","2022-09-23_10h37.41.566",1004,"stroop",73,"yellow","yellow",NA,"k",533,NA,NA,NA,NA,NA,NA,NA
"434","2022-09-23_10h37.41.566",1004,"stroop",74,"yellow","blue",NA,"d",614,NA,NA,NA,NA,NA,NA,NA
"435","2022-09-23_10h37.41.566",1004,"stroop",75,"green","green",NA,"f",920,NA,NA,NA,NA,NA,NA,NA
"436","2022-09-23_10h37.41.566",1004,"stroop",76,"green","green",NA,"f",481,NA,NA,NA,NA,NA,NA,NA
"437","2022-09-23_10h37.41.566",1004,"stroop",77,"blue","blue",NA,"d",498,NA,NA,NA,NA,NA,NA,NA
"438","2022-09-23_10h37.41.566",1004,"stroop",78,"yellow","yellow",NA,"k",549,NA,NA,NA,NA,NA,NA,NA
"439","2022-09-23_10h37.41.566",1004,"stroop",79,"green","blue",NA,"d",862,NA,NA,NA,NA,NA,NA,NA
"440","2022-09-23_10h37.41.566",1004,"stroop",80,"blue","blue",NA,"d",532,NA,NA,NA,NA,NA,NA,NA
"441","2022-09-23_10h37.41.566",1004,"stroop",81,"yellow","orange",NA,"j",533,NA,NA,NA,NA,NA,NA,NA
"442","2022-09-23_10h37.41.566",1004,"stroop",82,"yellow","blue",NA,"d",480,NA,NA,NA,NA,NA,NA,NA
"443","2022-09-23_10h37.41.566",1004,"stroop",83,"orange","orange",NA,"j",1198,NA,NA,NA,NA,NA,NA,NA
"444","2022-09-23_10h37.41.566",1004,"stroop",84,"blue","orange",NA,"d",670,NA,NA,NA,NA,NA,NA,NA
"445","2022-09-23_10h37.41.566",1004,"stroop",85,"yellow","green",NA,"f",1195,NA,NA,NA,NA,NA,NA,NA
"446","2022-09-23_10h37.41.566",1004,"stroop",86,"blue","green",NA,"d",651,NA,NA,NA,NA,NA,NA,NA
"447","2022-09-23_10h37.41.566",1004,"stroop",87,"blue","blue",NA,"d",548,NA,NA,NA,NA,NA,NA,NA
"448","2022-09-23_10h37.41.566",1004,"stroop",88,"blue","yellow",NA,"k",664,NA,NA,NA,NA,NA,NA,NA
"449","2022-09-23_10h37.41.566",1004,"stroop",89,"green","green",NA,"f",933,NA,NA,NA,NA,NA,NA,NA
"450","2022-09-23_10h37.41.566",1004,"stroop",90,"blue","blue",NA,"d",615,NA,NA,NA,NA,NA,NA,NA
"451","2022-09-23_10h37.41.566",1004,"stroop",91,"green","blue",NA,"d",747,NA,NA,NA,NA,NA,NA,NA
"452","2022-09-23_10h37.41.566",1004,"stroop",92,"green","green",NA,"f",578,NA,NA,NA,NA,NA,NA,NA
"453","2022-09-23_10h37.41.566",1004,"stroop",93,"yellow","blue",NA,"d",634,NA,NA,NA,NA,NA,NA,NA
"454","2022-09-23_10h37.41.566",1004,"stroop",94,"orange","yellow",NA,"k",624,NA,NA,NA,NA,NA,NA,NA
"455","2022-09-23_10h37.41.566",1004,"stroop",95,"green","yellow",NA,"k",516,NA,NA,NA,NA,NA,NA,NA
"456","2022-09-23_10h37.41.566",1004,"stroop",96,"yellow","yellow",NA,"k",597,NA,NA,NA,NA,NA,NA,NA
"457","2022-09-23_10h37.41.566",1004,"stroop",97,"yellow","yellow",NA,"k",508,NA,NA,NA,NA,NA,NA,NA
"458","2022-09-23_10h37.41.566",1004,"stroop",98,"orange","green",NA,"f",699,NA,NA,NA,NA,NA,NA,NA
"459","2022-09-23_10h37.41.566",1004,"stroop",99,"green","orange",NA,"j",948,NA,NA,NA,NA,NA,NA,NA
"460","2022-09-23_10h37.41.566",1004,"stroop",100,"green","blue",NA,"d",715,NA,NA,NA,NA,NA,NA,NA
"461","2022-09-23_10h37.41.566",1004,"stroop",101,"green","green",NA,"f",985,NA,NA,NA,NA,NA,NA,NA
"462","2022-09-23_10h37.41.566",1004,"stroop",102,"yellow","green",NA,"f",895,NA,NA,NA,NA,NA,NA,NA
"463","2022-09-23_10h37.41.566",1004,"stroop",103,"yellow","yellow",NA,"k",949,NA,NA,NA,NA,NA,NA,NA
"464","2022-09-23_10h37.41.566",1004,"stroop",104,"orange","orange",NA,"j",732,NA,NA,NA,NA,NA,NA,NA
"465","2022-09-23_10h37.41.566",1004,"stroop",105,"green","yellow",NA,"k",730,NA,NA,NA,NA,NA,NA,NA
"466","2022-09-23_10h37.41.566",1004,"stroop",106,"orange","yellow",NA,"k",631,NA,NA,NA,NA,NA,NA,NA
"467","2022-09-23_10h37.41.566",1004,"stroop",107,"orange","green",NA,"f",649,NA,NA,NA,NA,NA,NA,NA
"468","2022-09-23_10h37.41.566",1004,"stroop",108,"orange","orange",NA,"j",1100,NA,NA,NA,NA,NA,NA,NA
"469","2022-09-23_10h37.41.566",1004,"stroop",109,"yellow","orange",NA,"j",2101,NA,NA,NA,NA,NA,NA,NA
"470","2022-09-23_10h37.41.566",1004,"stroop",110,"blue","orange",NA,"d",640,NA,NA,NA,NA,NA,NA,NA
"471","2022-09-23_10h37.41.566",1004,"stroop",111,"orange","blue",NA,"d",1370,NA,NA,NA,NA,NA,NA,NA
"472","2022-09-23_10h37.41.566",1004,"stroop",112,"green","yellow",NA,"k",749,NA,NA,NA,NA,NA,NA,NA
"473","2022-09-23_10h37.41.566",1004,"stroop",113,"orange","orange",NA,"j",1338,NA,NA,NA,NA,NA,NA,NA
"474","2022-09-23_10h37.41.566",1004,"stroop",114,"orange","green",NA,"f",685,NA,NA,NA,NA,NA,NA,NA
"475","2022-09-23_10h37.41.566",1004,"stroop",115,"blue","yellow",NA,"k",917,NA,NA,NA,NA,NA,NA,NA
"476","2022-09-23_10h37.41.566",1004,"stroop",116,"blue","green",NA,"f",1248,NA,NA,NA,NA,NA,NA,NA
"477","2022-09-23_10h37.41.566",1004,"stroop",117,"yellow","orange",NA,"j",664,NA,NA,NA,NA,NA,NA,NA
"478","2022-09-23_10h37.41.566",1004,"stroop",118,"orange","green",NA,"f",1814,NA,NA,NA,NA,NA,NA,NA
"479","2022-09-23_10h37.41.566",1004,"stroop",119,"blue","yellow",NA,"k",615,NA,NA,NA,NA,NA,NA,NA
"480","2022-09-23_10h37.41.566",1004,"stroop",120,"yellow","yellow",NA,"k",1621,NA,NA,NA,NA,NA,NA,NA
"481","2022-09-23_10h37.41.566",1004,"stroop",121,"orange","yellow",NA,"k",599,NA,NA,NA,NA,NA,NA,NA
"482","2022-09-23_10h37.41.566",1004,"stroop",122,"yellow","green",NA,"f",965,NA,NA,NA,NA,NA,NA,NA
"483","2022-09-23_10h37.41.566",1004,"stroop",123,"blue","blue",NA,"d",616,NA,NA,NA,NA,NA,NA,NA
"484","2022-09-23_10h37.41.566",1004,"stroop",124,"green","green",NA,"f",1283,NA,NA,NA,NA,NA,NA,NA
"485","2022-09-23_10h37.41.566",1004,"stroop",125,"blue","blue",NA,"d",665,NA,NA,NA,NA,NA,NA,NA
"486","2022-09-23_10h37.41.566",1004,"stroop",126,"yellow","yellow",NA,"k",1522,NA,NA,NA,NA,NA,NA,NA
"487","2022-09-23_10h37.41.566",1004,"stroop",127,"orange","blue",NA,"d",784,NA,NA,NA,NA,NA,NA,NA
"488","2022-09-23_10h37.41.566",1004,"stroop",128,"orange","orange",NA,"j",1206,NA,NA,NA,NA,NA,NA,NA
"489","2022-09-23_10h37.41.566",1004,"stroop",129,"blue","orange",NA,"d",697,NA,NA,NA,NA,NA,NA,NA
"490","2022-09-23_10h37.41.566",1004,"stroop",130,"green","blue",NA,"d",2305,NA,NA,NA,NA,NA,NA,NA
"491","2022-09-23_10h37.41.566",1004,"stroop",131,"yellow","yellow",NA,"k",630,NA,NA,NA,NA,NA,NA,NA
"492","2022-09-23_10h37.41.566",1004,"stroop",132,"yellow","yellow",NA,"k",546,NA,NA,NA,NA,NA,NA,NA
"493","2022-09-23_10h37.41.566",1004,"stroop",133,"orange","yellow",NA,"k",782,NA,NA,NA,NA,NA,NA,NA
"494","2022-09-23_10h37.41.566",1004,"stroop",134,"blue","yellow",NA,"k",532,NA,NA,NA,NA,NA,NA,NA
"495","2022-09-23_10h37.41.566",1004,"stroop",135,"yellow","yellow",NA,"k",511,NA,NA,NA,NA,NA,NA,NA
"496","2022-09-23_10h37.41.566",1004,"stroop",136,"green","yellow",NA,"k",602,NA,NA,NA,NA,NA,NA,NA
"497","2022-09-23_10h37.41.566",1004,"stroop",137,"orange","green",NA,"f",865,NA,NA,NA,NA,NA,NA,NA
"498","2022-09-23_10h37.41.566",1004,"stroop",138,"orange","blue",NA,"d",632,NA,NA,NA,NA,NA,NA,NA
"499","2022-09-23_10h37.41.566",1004,"stroop",139,"yellow","yellow",NA,"f",466,NA,NA,NA,NA,NA,NA,NA
"500","2022-09-23_10h37.41.566",1004,"stroop",140,"orange","orange",NA,"j",852,NA,NA,NA,NA,NA,NA,NA
"501","2022-09-23_10h37.41.566",1004,"stroop",141,"blue","orange",NA,"j",501,NA,NA,NA,NA,NA,NA,NA
"502","2022-09-23_10h37.41.566",1004,"stroop",142,"green","orange",NA,"j",459,NA,NA,NA,NA,NA,NA,NA
"503","2022-09-23_10h37.41.566",1004,"stroop",143,"orange","blue",NA,"d",938,NA,NA,NA,NA,NA,NA,NA
"504","2022-09-23_10h37.41.566",1004,"stroop",144,"yellow","green",NA,"f",980,NA,NA,NA,NA,NA,NA,NA
"505","2022-09-23_10h37.41.566",1004,"stroop",145,"green","orange",NA,"j",837,NA,NA,NA,NA,NA,NA,NA
"506","2022-09-23_10h37.41.566",1004,"stroop",146,"blue","orange",NA,"j",590,NA,NA,NA,NA,NA,NA,NA
"507","2022-09-23_10h37.41.566",1004,"stroop",147,"blue","yellow",NA,"k",698,NA,NA,NA,NA,NA,NA,NA
"508","2022-09-23_10h37.41.566",1004,"stroop",148,"green","green",NA,"f",786,NA,NA,NA,NA,NA,NA,NA
"509","2022-09-23_10h37.41.566",1004,"stroop",149,"blue","blue",NA,"d",552,NA,NA,NA,NA,NA,NA,NA
"510","2022-09-23_10h37.41.566",1004,"stroop",150,"green","blue",NA,"d",604,NA,NA,NA,NA,NA,NA,NA
"511","2022-09-23_10h37.41.566",1004,"stroop",151,"green","green",NA,"f",1764,NA,NA,NA,NA,NA,NA,NA
"512","2022-09-23_10h37.41.566",1004,"stroop",152,"orange","orange",NA,"j",936,NA,NA,NA,NA,NA,NA,NA
"513","2022-09-23_10h37.41.566",1004,"stroop",153,"green","green",NA,"f",1266,NA,NA,NA,NA,NA,NA,NA
"514","2022-09-23_10h37.41.566",1004,"stroop",154,"green","green",NA,"f",480,NA,NA,NA,NA,NA,NA,NA
"515","2022-09-23_10h37.41.566",1004,"stroop",155,"green","blue",NA,"d",614,NA,NA,NA,NA,NA,NA,NA
"516","2022-09-23_10h37.41.566",1004,"stroop",156,"yellow","yellow",NA,"k",913,NA,NA,NA,NA,NA,NA,NA
"517","2022-09-23_10h37.41.566",1004,"stroop",157,"blue","yellow",NA,"k",784,NA,NA,NA,NA,NA,NA,NA
"518","2022-09-23_10h37.41.566",1004,"stroop",158,"yellow","green",NA,"f",1404,NA,NA,NA,NA,NA,NA,NA
"519","2022-09-23_10h37.41.566",1004,"stroop",159,"green","green",NA,"f",538,NA,NA,NA,NA,NA,NA,NA
"520","2022-09-23_10h37.41.566",1004,"stroop",160,"green","orange",NA,"j",816,NA,NA,NA,NA,NA,NA,NA
"521","2022-09-23_10h37.41.566",1004,"stroop",161,"yellow","yellow",NA,"k",916,NA,NA,NA,NA,NA,NA,NA
"522","2022-09-23_10h37.41.566",1004,"stroop",162,"yellow","blue",NA,"d",562,NA,NA,NA,NA,NA,NA,NA
"523","2022-09-23_10h37.41.566",1004,"stroop",163,"yellow","yellow",NA,"d",548,NA,NA,NA,NA,NA,NA,NA
"524","2022-09-23_10h37.41.566",1004,"stroop",164,"blue","blue",NA,"d",1116,NA,NA,NA,NA,NA,NA,NA
"525","2022-09-23_10h37.41.566",1004,"stroop",165,"green","yellow",NA,"k",562,NA,NA,NA,NA,NA,NA,NA
"526","2022-09-23_10h37.41.566",1004,"stroop",166,"yellow","green",NA,"f",781,NA,NA,NA,NA,NA,NA,NA
"527","2022-09-23_10h37.41.566",1004,"stroop",167,"green","green",NA,"f",599,NA,NA,NA,NA,NA,NA,NA
"528","2022-09-23_10h37.41.566",1004,"stroop",168,"orange","orange",NA,"j",648,NA,NA,NA,NA,NA,NA,NA
"529","2022-09-23_10h37.41.566",1004,"stroop",169,"green","blue",NA,"d",935,NA,NA,NA,NA,NA,NA,NA
"530","2022-09-23_10h37.41.566",1004,"stroop",170,"orange","blue",NA,"d",449,NA,NA,NA,NA,NA,NA,NA
"531","2022-09-23_10h37.41.566",1004,"stroop",171,"yellow","yellow",NA,"k",665,NA,NA,NA,NA,NA,NA,NA
"532","2022-09-23_10h37.41.566",1004,"stroop",172,"blue","blue",NA,"d",600,NA,NA,NA,NA,NA,NA,NA
"533","2022-09-23_10h37.41.566",1004,"stroop",173,"orange","orange",NA,"j",670,NA,NA,NA,NA,NA,NA,NA
"534","2022-09-23_10h37.41.566",1004,"stroop",174,"blue","orange",NA,"j",648,NA,NA,NA,NA,NA,NA,NA
"535","2022-09-23_10h37.41.566",1004,"stroop",175,"orange","blue",NA,"d",641,NA,NA,NA,NA,NA,NA,NA
"536","2022-09-23_10h37.41.566",1004,"stroop",176,"blue","green",NA,"f",1212,NA,NA,NA,NA,NA,NA,NA
"537","2022-09-23_10h37.41.566",1004,"stroop",177,"orange","orange",NA,"j",897,NA,NA,NA,NA,NA,NA,NA
"538","2022-09-23_10h37.41.566",1004,"stroop",178,"blue","green",NA,"j",681,NA,NA,NA,NA,NA,NA,NA
"539","2022-09-23_10h37.41.566",1004,"stroop",179,"green","yellow",NA,"k",934,NA,NA,NA,NA,NA,NA,NA
"540","2022-09-23_10h37.41.566",1004,"stroop",180,"green","green",NA,"f",3184,NA,NA,NA,NA,NA,NA,NA
"541","2022-09-23_10h37.41.566",1004,"stroop",181,"green","green",NA,"f",598,NA,NA,NA,NA,NA,NA,NA
"542","2022-09-23_10h37.41.566",1004,"stroop",182,"green","yellow",NA,"j",582,NA,NA,NA,NA,NA,NA,NA
"543","2022-09-23_10h37.41.566",1004,"stroop",183,"orange","orange",NA,"j",1036,NA,NA,NA,NA,NA,NA,NA
"544","2022-09-23_10h37.41.566",1004,"stroop",184,"orange","orange",NA,"j",566,NA,NA,NA,NA,NA,NA,NA
"545","2022-09-23_10h37.41.566",1004,"stroop",185,"yellow","yellow",NA,"k",549,NA,NA,NA,NA,NA,NA,NA
"546","2022-09-23_10h37.41.566",1004,"stroop",186,"yellow","orange",NA,"j",1499,NA,NA,NA,NA,NA,NA,NA
"547","2022-09-23_10h37.41.566",1004,"stroop",187,"green","green",NA,"f",1385,NA,NA,NA,NA,NA,NA,NA
"548","2022-09-23_10h37.41.566",1004,"stroop",188,"blue","green",NA,"f",931,NA,NA,NA,NA,NA,NA,NA
"549","2022-09-23_10h37.41.566",1004,"stroop",189,"green","orange",NA,"j",915,NA,NA,NA,NA,NA,NA,NA
"550","2022-09-23_10h37.41.566",1004,"stroop",190,"blue","orange",NA,"j",548,NA,NA,NA,NA,NA,NA,NA
"551","2022-09-23_10h37.41.566",1004,"stroop",191,"orange","orange",NA,"j",515,NA,NA,NA,NA,NA,NA,NA
"552","2022-09-23_10h37.41.566",1004,"stroop",192,"blue","blue",NA,"d",714,NA,NA,NA,NA,NA,NA,NA
"553","2022-09-23_10h37.41.566",1004,"emotional",1,"column","orange","neutral","j",945,71,5.17,3.62,4.81,0.85,1.91,1.58
"554","2022-09-23_10h37.41.566",1004,"emotional",2,"clock","green","neutral","f",1151,20,5.14,4.02,4.67,1.54,2.54,1.97
"555","2022-09-23_10h37.41.566",1004,"emotional",3,"proud","yellow","positive","k",799,50,8.03,5.56,6.74,1.56,3.01,2.73
"556","2022-09-23_10h37.41.566",1004,"emotional",4,"rainbow","blue","positive","d",1482,4,8.14,4.64,4.72,1.23,2.88,2.37
"557","2022-09-23_10h37.41.566",1004,"emotional",5,"mutilate","green","negative","j",1182,3,1.82,6.41,3.41,1.45,2.94,2.71
"558","2022-09-23_10h37.41.566",1004,"emotional",6,"despise","blue","negative","d",647,7,2.03,6.28,4.72,1.38,2.43,2.8
"559","2022-09-23_10h37.41.566",1004,"emotional",7,"cruel","green","negative","f",864,15,1.97,5.68,4.24,1.67,2.65,2.84
"560","2022-09-23_10h37.41.566",1004,"emotional",8,"cabinet","orange","neutral","j",830,17,5.05,3.43,4.73,0.31,1.85,1.66
"561","2022-09-23_10h37.41.566",1004,"emotional",9,"malaria","orange","negative","j",568,3,2.4,4.4,3.22,1.38,2.54,1.9
"562","2022-09-23_10h37.41.566",1004,"emotional",10,"curtains","blue","neutral","d",628,8,4.83,3.67,5.05,0.83,1.83,1.56
"563","2022-09-23_10h37.41.566",1004,"emotional",11,"tease","orange","neutral","j",733,6,4.84,5.87,4.67,2.51,2.56,2.37
"564","2022-09-23_10h37.41.566",1004,"emotional",12,"rage","blue","negative","d",1135,16,2.41,8.17,5.68,1.86,1.4,3.01
"565","2022-09-23_10h37.41.566",1004,"emotional",13,"cheer","green","positive","f",1031,8,8.1,6.12,6,1.17,2.45,2.06
"566","2022-09-23_10h37.41.566",1004,"emotional",14,"beauty","orange","positive","j",952,71,7.82,4.95,5.53,1.16,2.57,2.1
"567","2022-09-23_10h37.41.566",1004,"emotional",15,"stove","yellow","neutral","k",688,15,4.98,4.51,5.36,1.69,2.14,1.87
"568","2022-09-23_10h37.41.566",1004,"emotional",16,"jail","yellow","negative","k",545,21,1.95,5.49,3.81,1.27,2.67,2.71
"569","2022-09-23_10h37.41.566",1004,"emotional",17,"pillow","green","positive","f",747,8,7.92,2.97,4.56,1.4,2.52,2.17
"570","2022-09-23_10h37.41.566",1004,"emotional",18,"corridor","yellow","neutral","f",715,17,4.88,3.63,5,1.14,2.41,1.48
"571","2022-09-23_10h37.41.566",1004,"emotional",19,"kettle","blue","neutral","d",570,3,5.22,3.22,5,0.91,2.23,1.4
"572","2022-09-23_10h37.41.566",1004,"emotional",20,"cannon","yellow","neutral","k",695,7,4.9,4.71,5.17,2.2,2.84,2.29
"573","2022-09-23_10h37.41.566",1004,"emotional",21,"swamp","blue","neutral","d",646,5,5.14,4.86,5.29,2.24,2.36,1.63
"574","2022-09-23_10h37.41.566",1004,"emotional",22,"dreadful","yellow","negative","k",600,10,2.26,5.84,4.1,1.91,2.62,2.36
"575","2022-09-23_10h37.41.566",1004,"emotional",23,"trophy","green","positive","f",731,8,7.78,5.39,6.44,1.22,2.44,2.32
"576","2022-09-23_10h37.41.566",1004,"emotional",24,"romantic","orange","positive","j",698,32,8.32,7.59,6.08,1,2.07,2.29
"577","2022-09-23_10h37.41.566",1004,"emotional",25,"stiff","orange","neutral","j",565,21,4.68,4.02,4.93,1.97,2.41,2.04
"578","2022-09-23_10h37.41.566",1004,"emotional",26,"aloof","blue","neutral","d",749,5,4.9,4.28,4.69,1.92,2.1,1.92
"579","2022-09-23_10h37.41.566",1004,"emotional",27,"tragedy","green","negative","f",865,49,1.78,6.24,3.5,1.31,2.64,2.34
"580","2022-09-23_10h37.41.566",1004,"emotional",28,"chin","blue","neutral","d",732,27,5.29,3.31,5.26,1.27,1.98,1.48
"581","2022-09-23_10h37.41.566",1004,"emotional",29,"kerosene","yellow","neutral","k",781,6,4.8,4.34,4.63,1.59,2.51,1.99
"582","2022-09-23_10h37.41.566",1004,"emotional",30,"patent","blue","neutral","d",595,35,5.29,3.5,4.9,1.08,1.84,1.79
"583","2022-09-23_10h37.41.566",1004,"emotional",31,"defeated","yellow","negative","k",681,15,2.34,5.09,3.11,1.66,3,2.34
"584","2022-09-23_10h37.41.566",1004,"emotional",32,"context","blue","neutral","d",669,2,5.2,4.22,5.17,1.38,2.24,1.39
"585","2022-09-23_10h37.41.566",1004,"emotional",33,"locker","orange","neutral","f",898,9,5.19,3.38,5.36,1.31,2.13,1.87
"586","2022-09-23_10h37.41.566",1004,"emotional",34,"hate","orange","negative","j",715,42,2.12,6.95,5.05,1.72,2.56,2.95
"587","2022-09-23_10h37.41.566",1004,"emotional",35,"thrill","orange","positive","j",599,5,8.05,8.02,6.54,1.48,1.65,2.3
"588","2022-09-23_10h37.41.566",1004,"emotional",36,"desire","orange","positive","j",568,79,7.69,7.35,6.49,1.39,1.76,1.83
"589","2022-09-23_10h37.41.566",1004,"emotional",37,"loved","blue","positive","d",804,56,8.64,6.38,6.62,0.71,2.68,2.53
"590","2022-09-23_10h37.41.566",1004,"emotional",38,"bench","green","neutral","f",604,35,4.61,3.59,4.68,1.4,2.07,1.38
"591","2022-09-23_10h37.41.566",1004,"emotional",39,"sunrise","blue","positive","d",941,10,7.86,5.06,5.29,1.35,3.05,2.41
"592","2022-09-23_10h37.41.566",1004,"emotional",40,"fame","green","positive","f",2115,18,7.93,6.55,6.85,1.29,2.46,2.14
"593","2022-09-23_10h37.41.566",1004,"emotional",41,"contents","yellow","neutral","k",702,16,4.89,4.32,4.85,0.89,2.14,1.49
"594","2022-09-23_10h37.41.566",1004,"emotional",42,"snuggle","yellow","positive","k",582,4,7.92,4.16,5.66,1.24,2.8,2.47
"595","2022-09-23_10h37.41.566",1004,"emotional",43,"sunlight","yellow","positive","k",564,17,7.76,6.1,5.63,1.43,2.3,2.15
"596","2022-09-23_10h37.41.566",1004,"emotional",44,"ankle","yellow","neutral","k",580,8,5.27,4.16,4.77,1.54,2.03,1.74
"597","2022-09-23_10h37.41.566",1004,"emotional",45,"liberty","yellow","positive","k",447,46,7.98,5.6,6.29,1.22,2.65,2.44
"598","2022-09-23_10h37.41.566",1004,"emotional",46,"passion","blue","positive","d",547,28,8.03,7.26,6.13,1.27,2.57,2.24
"599","2022-09-23_10h37.41.566",1004,"emotional",47,"knot","green","neutral","f",701,8,4.64,4.07,4.67,1.36,2.15,1.65
"600","2022-09-23_10h37.41.566",1004,"emotional",48,"sick","yellow","negative","k",615,51,1.9,4.29,3.04,1.14,2.45,1.65
"601","2022-09-23_10h37.41.566",1004,"emotional",49,"hatred","yellow","negative","k",550,20,1.98,6.66,4.3,1.92,2.56,2.76
"602","2022-09-23_10h37.41.566",1004,"emotional",50,"beach","green","positive","f",889,61,8.03,5.53,5.44,1.59,3.07,2.52
"603","2022-09-23_10h37.41.566",1004,"emotional",51,"troubled","orange","negative","j",532,31,2.17,5.94,3.91,1.21,2.36,2.33
"604","2022-09-23_10h37.41.566",1004,"emotional",52,"starving","blue","negative","d",751,6,2.39,5.61,3.63,1.82,2.53,2.1
"605","2022-09-23_10h37.41.566",1004,"emotional",53,"barrel","blue","neutral","d",719,24,5.05,3.36,4.89,1.46,2.28,1.57
"606","2022-09-23_10h37.41.566",1004,"emotional",54,"elbow","green","neutral","f",1332,10,5.12,3.81,4.88,0.92,2.14,1.52
"607","2022-09-23_10h37.41.566",1004,"emotional",55,"divorce","orange","negative","j",719,29,2.22,6.33,3.26,1.88,2.71,2.24
"608","2022-09-23_10h37.41.566",1004,"emotional",56,"merry","orange","positive","j",454,8,7.9,5.9,6.64,1.49,2.42,1.66
"609","2022-09-23_10h37.41.566",1004,"emotional",57,"delight","yellow","positive","k",570,29,8.26,5.44,5.79,1.04,2.88,2.24
"610","2022-09-23_10h37.41.566",1004,"emotional",58,"rescue","green","positive","f",1896,15,7.7,6.53,6.45,1.24,2.56,2.29
"611","2022-09-23_10h37.41.566",1004,"emotional",59,"lonely","blue","negative","d",598,25,2.17,4.51,2.95,1.76,2.68,2.12
"612","2022-09-23_10h37.41.566",1004,"emotional",60,"hammer","orange","neutral","f",979,9,4.88,4.58,4.75,1.16,2.02,1.88
"613","2022-09-23_10h37.41.566",1004,"emotional",61,"stupid","yellow","negative","k",2055,24,2.31,4.72,2.98,1.37,2.71,2.18
"614","2022-09-23_10h37.41.566",1004,"emotional",62,"handsome","orange","positive","j",890,40,7.93,5.95,5.19,1.47,2.73,2.22
"615","2022-09-23_10h37.41.566",1004,"emotional",63,"hurt","green","negative","f",864,37,1.9,5.85,3.33,1.26,2.49,2.22
"616","2022-09-23_10h37.41.566",1004,"emotional",64,"disaster","green","negative","f",645,26,1.73,6.33,3.52,1.13,2.7,2.42
"617","2022-09-23_10h37.41.566",1004,"emotional",65,"engaged","blue","positive","d",557,47,8,6.77,6.49,1.38,2.07,2.22
"618","2022-09-23_10h37.41.566",1004,"emotional",66,"useless","blue","negative","d",598,17,2.13,4.87,3.92,1.42,2.58,2.62
"619","2022-09-23_10h37.41.566",1004,"emotional",67,"terrible","blue","negative","d",551,45,1.93,6.27,3.58,1.44,2.44,2.34
"620","2022-09-23_10h37.41.566",1004,"emotional",68,"victim","green","negative","f",1219,27,2.18,6.06,2.69,1.48,2.32,2.04
"621","2022-09-23_10h37.41.566",1004,"emotional",69,"nonsense","blue","neutral","d",987,13,4.61,4.17,4.9,1.63,2.02,1.55
"622","2022-09-23_10h37.41.566",1004,"emotional",70,"abuse","blue","negative","d",567,18,1.8,6.83,3.69,1.23,2.7,2.94
"623","2022-09-23_10h37.41.566",1004,"emotional",71,"joke","blue","positive","d",435,22,8.1,6.74,6.15,1.36,1.84,1.86
"624","2022-09-23_10h37.41.566",1004,"emotional",72,"comedy","orange","positive","j",1372,39,8.37,5.85,5.44,0.94,2.81,2.08
"625","2022-09-23_10h37.41.566",1004,"emotional",73,"finger","yellow","neutral","k",582,40,5.29,3.78,5.05,1.42,2.42,1.7
"626","2022-09-23_10h37.41.566",1004,"emotional",74,"blase","green","neutral","f",1349,7,4.89,3.94,4.57,1.16,1.76,1.44
"627","2022-09-23_10h37.41.566",1004,"emotional",75,"drown","orange","negative","j",1471,3,1.92,6.57,2.86,1.48,2.33,1.99
"628","2022-09-23_10h37.41.566",1004,"emotional",76,"sexy","yellow","positive","k",2027,2,8.02,7.36,6.82,1.12,1.91,2.13
"629","2022-09-23_10h37.41.566",1004,"emotional",77,"crushed","orange","negative","f",702,10,2.21,5.52,3.36,1.74,2.87,2.69
"630","2022-09-23_10h37.41.566",1004,"emotional",78,"treasure","yellow","positive","k",648,4,8.27,6.75,6.36,0.9,2.3,2.42
"631","2022-09-23_10h37.41.566",1004,"emotional",79,"roach","green","negative","f",2402,2,2.35,6.64,4.82,1.7,2.64,2.94
"632","2022-09-23_10h37.41.566",1004,"emotional",80,"taxi","green","neutral","f",532,16,5,3.41,4.64,1.96,2.14,1.83
"633","2022-09-23_10h37.41.566",1004,"emotional",81,"gloom","green","negative","f",531,14,1.88,3.83,3.55,1.23,2.33,2.07
"634","2022-09-23_10h37.41.566",1004,"emotional",82,"insecure","orange","negative","j",715,3,2.36,5.56,2.33,1.33,2.34,1.95
"635","2022-09-23_10h37.41.566",1004,"emotional",83,"pain","orange","negative","j",531,88,2.13,6.5,3.71,1.81,2.49,2.53
"636","2022-09-23_10h37.41.566",1004,"emotional",84,"birthday","yellow","positive","k",653,18,7.84,6.68,5.89,1.92,2.11,2.61
"637","2022-09-23_10h37.41.566",1004,"emotional",85,"crucify","blue","negative","d",637,2,2.23,6.47,3.74,1.72,2.47,2.48
"638","2022-09-23_10h37.41.566",1004,"emotional",86,"laughter","orange","positive","j",685,22,8.45,6.75,6.45,1.08,2.5,2.45
"639","2022-09-23_10h37.41.566",1004,"emotional",87,"iron","blue","neutral","d",520,43,4.9,3.76,5.1,1.02,2.06,1.27
"640","2022-09-23_10h37.41.566",1004,"emotional",88,"seat","orange","neutral","j",550,54,4.95,2.95,4.84,0.98,1.72,1.88
"641","2022-09-23_10h37.41.566",1004,"emotional",89,"poison","yellow","negative","k",586,10,1.98,6.05,3.1,1.44,2.82,2.44
"642","2022-09-23_10h37.41.566",1004,"emotional",90,"paradise","yellow","positive","k",470,12,8.72,5.12,6.03,0.6,3.38,2.79
"643","2022-09-23_10h37.41.566",1004,"emotional",91,"tool","yellow","neutral","k",507,40,5.19,4.33,5.67,1.27,1.78,1.62
"644","2022-09-23_10h37.41.566",1004,"emotional",92,"ulcer","yellow","negative","k",451,5,1.78,6.12,4.17,1.17,2.68,2.22
"645","2022-09-23_10h37.41.566",1004,"emotional",93,"chair","orange","neutral","j",1197,66,5.08,3.15,4.56,0.98,1.77,1.6
"646","2022-09-23_10h37.41.566",1004,"emotional",94,"mantel","yellow","neutral","k",684,3,4.93,3.27,4.95,1.4,2.23,1.61
"647","2022-09-23_10h37.41.566",1004,"emotional",95,"lucky","green","positive","f",648,21,8.17,6.53,6.05,1.06,2.34,2.25
"648","2022-09-23_10h37.41.566",1004,"emotional",96,"pencil","green","neutral","f",621,34,5.22,3.14,4.78,0.68,1.9,1.73
"649","2022-09-23_10h37.41.566",1004,"emotional",97,"phase","green","neutral","f",485,72,5.17,3.98,4.65,0.79,1.82,1.72
"650","2022-09-23_10h37.41.566",1004,"emotional",98,"accident","green","negative","f",450,33,2.05,6.26,3.76,1.19,2.87,2.22
"651","2022-09-23_10h37.41.566",1004,"emotional",99,"burial","yellow","negative","k",716,11,2.05,5.08,3.55,1.41,2.4,1.95
"652","2022-09-23_10h37.41.566",1004,"emotional",100,"leader","green","positive","f",1601,74,7.63,6.27,7.88,1.59,2.18,1.6
"653","2022-09-23_10h37.41.566",1004,"emotional",101,"champion","blue","positive","d",613,23,8.44,5.85,6.5,0.9,3.15,2.85
"654","2022-09-23_10h37.41.566",1004,"emotional",102,"sickness","orange","negative","j",1270,6,2.25,5.61,3.84,1.71,2.67,2.5
"655","2022-09-23_10h37.41.566",1004,"emotional",103,"fearful","blue","negative","d",631,13,2.25,6.33,3.64,1.18,2.28,2.18
"656","2022-09-23_10h37.41.566",1004,"emotional",104,"umbrella","green","neutral","f",864,8,5.16,3.68,5.42,1.57,1.99,1.91
"657","2022-09-23_10h37.41.566",1004,"emotional",105,"misery","yellow","negative","k",632,15,1.93,5.17,2.55,1.6,2.69,1.45
"658","2022-09-23_10h37.41.566",1004,"emotional",106,"fabric","orange","neutral","j",1658,15,5.3,4.14,5.03,1.2,1.98,1.61
"659","2022-09-23_10h37.41.566",1004,"emotional",107,"miracle","orange","positive","j",498,16,8.6,7.65,5.35,0.71,1.67,2.58
"660","2022-09-23_10h37.41.566",1004,"emotional",108,"sunset","green","positive","f",2433,14,7.68,4.2,5.66,1.72,2.99,2.08
"661","2022-09-23_10h37.41.566",1004,"emotional",109,"pleasure","orange","positive","j",698,62,8.28,5.74,6.15,0.92,2.81,2.31
"662","2022-09-23_10h37.41.566",1004,"emotional",110,"admired","blue","positive","d",598,17,7.74,6.11,7.53,1.84,2.36,1.94
"663","2022-09-23_10h37.41.566",1004,"emotional",111,"cliff","yellow","neutral","k",651,11,4.67,6.25,4.35,2.08,2.15,2.11
"664","2022-09-23_10h37.41.566",1004,"emotional",112,"hostage","blue","negative","d",832,2,2.2,6.76,2.83,1.8,2.63,2.32
"665","2022-09-23_10h37.41.566",1004,"emotional",113,"improve","blue","positive","d",530,39,7.65,5.69,6.08,1.16,2.15,2.25
"666","2022-09-23_10h37.41.566",1004,"emotional",114,"engine","green","neutral","f",690,50,5.2,3.98,5,1.18,2.33,1.77
"667","2022-09-23_10h37.41.566",1004,"emotional",115,"volcano","orange","neutral","j",864,2,4.84,6.33,3.25,2.14,2.21,1.97
"668","2022-09-23_10h37.41.566",1004,"emotional",116,"kiss","green","positive","f",3638,17,8.26,7.32,6.93,1.54,2.03,2.28
"669","2022-09-23_10h37.41.566",1004,"emotional",117,"triumph","blue","positive","d",716,22,7.8,5.78,6.98,1.83,2.6,2.2
"670","2022-09-23_10h37.41.566",1004,"emotional",118,"vomit","green","negative","f",566,3,2.06,5.75,3.58,1.57,2.84,2.45
"671","2022-09-23_10h37.41.566",1004,"emotional",119,"afraid","orange","negative","j",655,57,2,6.67,3.98,1.28,2.54,2.63
"672","2022-09-23_10h37.41.566",1004,"emotional",120,"honor","yellow","positive","k",686,66,7.66,5.9,6.7,1.24,1.83,2.04
"673","2022-09-23_10h40.27.251",1001,"practice",1,"orange","orange",NA,"j",1378.8,NA,NA,NA,NA,NA,NA,NA
"674","2022-09-23_10h40.27.251",1001,"practice",2,"yellow","yellow",NA,"k",794.2,NA,NA,NA,NA,NA,NA,NA
"675","2022-09-23_10h40.27.251",1001,"practice",3,"blue","blue",NA,"d",967.3,NA,NA,NA,NA,NA,NA,NA
"676","2022-09-23_10h40.27.251",1001,"practice",4,"blue","blue",NA,"d",643.9,NA,NA,NA,NA,NA,NA,NA
"677","2022-09-23_10h40.27.251",1001,"practice",5,"blue","yellow",NA,"d",890.7,NA,NA,NA,NA,NA,NA,NA
"678","2022-09-23_10h40.27.251",1001,"practice",6,"orange","blue",NA,"d",1716.4,NA,NA,NA,NA,NA,NA,NA
"679","2022-09-23_10h40.27.251",1001,"practice",7,"yellow","yellow",NA,"k",957.9,NA,NA,NA,NA,NA,NA,NA
"680","2022-09-23_10h40.27.251",1001,"practice",8,"green","green",NA,"f",1716.9,NA,NA,NA,NA,NA,NA,NA
"681","2022-09-23_10h40.27.251",1001,"practice",9,"green","orange",NA,"j",1866.6,NA,NA,NA,NA,NA,NA,NA
"682","2022-09-23_10h40.27.251",1001,"practice",10,"blue","green",NA,"f",1306,NA,NA,NA,NA,NA,NA,NA
"683","2022-09-23_10h40.27.251",1001,"practice",11,"orange","orange",NA,"j",1378.6,NA,NA,NA,NA,NA,NA,NA
"684","2022-09-23_10h40.27.251",1001,"practice",12,"green","green",NA,"f",1516.8,NA,NA,NA,NA,NA,NA,NA
"685","2022-09-23_10h40.27.251",1001,"practice",13,"yellow","orange",NA,"k",1102.1,NA,NA,NA,NA,NA,NA,NA
"686","2022-09-23_10h40.27.251",1001,"practice",14,"green","yellow",NA,"k",1056,NA,NA,NA,NA,NA,NA,NA
"687","2022-09-23_10h40.27.251",1001,"practice",15,"green","blue",NA,"d",995.6,NA,NA,NA,NA,NA,NA,NA
"688","2022-09-23_10h40.27.251",1001,"practice",16,"orange","orange",NA,"j",854.6,NA,NA,NA,NA,NA,NA,NA
"689","2022-09-23_10h40.27.251",1001,"practice",17,"green","green",NA,"f",1168,NA,NA,NA,NA,NA,NA,NA
"690","2022-09-23_10h40.27.251",1001,"practice",18,"orange","yellow",NA,"k",959.7,NA,NA,NA,NA,NA,NA,NA
"691","2022-09-23_10h40.27.251",1001,"practice",19,"yellow","blue",NA,"d",1144.7,NA,NA,NA,NA,NA,NA,NA
"692","2022-09-23_10h40.27.251",1001,"practice",20,"yellow","green",NA,"f",921.9,NA,NA,NA,NA,NA,NA,NA
"693","2022-09-23_10h40.27.251",1001,"practice",21,"orange","green",NA,"f",1101.1,NA,NA,NA,NA,NA,NA,NA
"694","2022-09-23_10h40.27.251",1001,"practice",22,"yellow","yellow",NA,"k",1233.8,NA,NA,NA,NA,NA,NA,NA
"695","2022-09-23_10h40.27.251",1001,"practice",23,"blue","blue",NA,"d",649.2,NA,NA,NA,NA,NA,NA,NA
"696","2022-09-23_10h40.27.251",1001,"practice",24,"blue","orange",NA,"d",809.9,NA,NA,NA,NA,NA,NA,NA
"697","2022-09-23_10h40.27.251",1001,"stroop",1,"yellow","yellow",NA,"k",744,NA,NA,NA,NA,NA,NA,NA
"698","2022-09-23_10h40.27.251",1001,"stroop",2,"orange","orange",NA,"j",922.1,NA,NA,NA,NA,NA,NA,NA
"699","2022-09-23_10h40.27.251",1001,"stroop",3,"yellow","yellow",NA,"k",820.4,NA,NA,NA,NA,NA,NA,NA
"700","2022-09-23_10h40.27.251",1001,"stroop",4,"yellow","blue",NA,"d",878,NA,NA,NA,NA,NA,NA,NA
"701","2022-09-23_10h40.27.251",1001,"stroop",5,"yellow","orange",NA,"j",1249.6,NA,NA,NA,NA,NA,NA,NA
"702","2022-09-23_10h40.27.251",1001,"stroop",6,"green","green",NA,"f",773.3,NA,NA,NA,NA,NA,NA,NA
"703","2022-09-23_10h40.27.251",1001,"stroop",7,"green","green",NA,"f",818.2,NA,NA,NA,NA,NA,NA,NA
"704","2022-09-23_10h40.27.251",1001,"stroop",8,"orange","green",NA,"f",935.4,NA,NA,NA,NA,NA,NA,NA
"705","2022-09-23_10h40.27.251",1001,"stroop",9,"blue","blue",NA,"d",752.6,NA,NA,NA,NA,NA,NA,NA
"706","2022-09-23_10h40.27.251",1001,"stroop",10,"orange","orange",NA,"j",800.1,NA,NA,NA,NA,NA,NA,NA
"707","2022-09-23_10h40.27.251",1001,"stroop",11,"green","green",NA,"f",755.2,NA,NA,NA,NA,NA,NA,NA
"708","2022-09-23_10h40.27.251",1001,"stroop",12,"blue","green",NA,"f",917.4,NA,NA,NA,NA,NA,NA,NA
"709","2022-09-23_10h40.27.251",1001,"stroop",13,"orange","orange",NA,"j",866.9,NA,NA,NA,NA,NA,NA,NA
"710","2022-09-23_10h40.27.251",1001,"stroop",14,"yellow","yellow",NA,"k",839,NA,NA,NA,NA,NA,NA,NA
"711","2022-09-23_10h40.27.251",1001,"stroop",15,"blue","blue",NA,"d",750.1,NA,NA,NA,NA,NA,NA,NA
"712","2022-09-23_10h40.27.251",1001,"stroop",16,"green","green",NA,"f",699.7,NA,NA,NA,NA,NA,NA,NA
"713","2022-09-23_10h40.27.251",1001,"stroop",17,"yellow","yellow",NA,"k",825.6,NA,NA,NA,NA,NA,NA,NA
"714","2022-09-23_10h40.27.251",1001,"stroop",18,"orange","orange",NA,"j",700.5,NA,NA,NA,NA,NA,NA,NA
"715","2022-09-23_10h40.27.251",1001,"stroop",19,"orange","orange",NA,"j",772.5,NA,NA,NA,NA,NA,NA,NA
"716","2022-09-23_10h40.27.251",1001,"stroop",20,"orange","yellow",NA,"k",1438.5,NA,NA,NA,NA,NA,NA,NA
"717","2022-09-23_10h40.27.251",1001,"stroop",21,"blue","blue",NA,"d",751.1,NA,NA,NA,NA,NA,NA,NA
"718","2022-09-23_10h40.27.251",1001,"stroop",22,"green","green",NA,"f",641.5,NA,NA,NA,NA,NA,NA,NA
"719","2022-09-23_10h40.27.251",1001,"stroop",23,"blue","yellow",NA,"k",1191.4,NA,NA,NA,NA,NA,NA,NA
"720","2022-09-23_10h40.27.251",1001,"stroop",24,"blue","blue",NA,"d",723.9,NA,NA,NA,NA,NA,NA,NA
"721","2022-09-23_10h40.27.251",1001,"stroop",25,"blue","blue",NA,"d",749.6,NA,NA,NA,NA,NA,NA,NA
"722","2022-09-23_10h40.27.251",1001,"stroop",26,"blue","blue",NA,"d",756.1,NA,NA,NA,NA,NA,NA,NA
"723","2022-09-23_10h40.27.251",1001,"stroop",27,"green","orange",NA,"j",978.4,NA,NA,NA,NA,NA,NA,NA
"724","2022-09-23_10h40.27.251",1001,"stroop",28,"orange","orange",NA,"j",884.3,NA,NA,NA,NA,NA,NA,NA
"725","2022-09-23_10h40.27.251",1001,"stroop",29,"blue","blue",NA,"d",1208,NA,NA,NA,NA,NA,NA,NA
"726","2022-09-23_10h40.27.251",1001,"stroop",30,"green","green",NA,"f",650.2,NA,NA,NA,NA,NA,NA,NA
"727","2022-09-23_10h40.27.251",1001,"stroop",31,"green","orange",NA,"j",1091.6,NA,NA,NA,NA,NA,NA,NA
"728","2022-09-23_10h40.27.251",1001,"stroop",32,"yellow","yellow",NA,"k",833.7,NA,NA,NA,NA,NA,NA,NA
"729","2022-09-23_10h40.27.251",1001,"stroop",33,"blue","blue",NA,"d",617.4,NA,NA,NA,NA,NA,NA,NA
"730","2022-09-23_10h40.27.251",1001,"stroop",34,"blue","green",NA,"f",1271.3,NA,NA,NA,NA,NA,NA,NA
"731","2022-09-23_10h40.27.251",1001,"stroop",35,"blue","blue",NA,"d",873,NA,NA,NA,NA,NA,NA,NA
"732","2022-09-23_10h40.27.251",1001,"stroop",36,"green","orange",NA,"j",936.7,NA,NA,NA,NA,NA,NA,NA
"733","2022-09-23_10h40.27.251",1001,"stroop",37,"yellow","orange",NA,"j",1328.1,NA,NA,NA,NA,NA,NA,NA
"734","2022-09-23_10h40.27.251",1001,"stroop",38,"yellow","yellow",NA,"k",872.3,NA,NA,NA,NA,NA,NA,NA
"735","2022-09-23_10h40.27.251",1001,"stroop",39,"yellow","yellow",NA,"k",669.6,NA,NA,NA,NA,NA,NA,NA
"736","2022-09-23_10h40.27.251",1001,"stroop",40,"yellow","yellow",NA,"k",608.7,NA,NA,NA,NA,NA,NA,NA
"737","2022-09-23_10h40.27.251",1001,"stroop",41,"yellow","orange",NA,"j",1943.1,NA,NA,NA,NA,NA,NA,NA
"738","2022-09-23_10h40.27.251",1001,"stroop",42,"yellow","yellow",NA,"k",758.5,NA,NA,NA,NA,NA,NA,NA
"739","2022-09-23_10h40.27.251",1001,"stroop",43,"blue","blue",NA,"d",721.2,NA,NA,NA,NA,NA,NA,NA
"740","2022-09-23_10h40.27.251",1001,"stroop",44,"orange","green",NA,"f",1317,NA,NA,NA,NA,NA,NA,NA
"741","2022-09-23_10h40.27.251",1001,"stroop",45,"blue","yellow",NA,"j",1158.3,NA,NA,NA,NA,NA,NA,NA
"742","2022-09-23_10h40.27.251",1001,"stroop",46,"yellow","orange",NA,"k",1067.7,NA,NA,NA,NA,NA,NA,NA
"743","2022-09-23_10h40.27.251",1001,"stroop",47,"yellow","orange",NA,"j",1017.4,NA,NA,NA,NA,NA,NA,NA
"744","2022-09-23_10h40.27.251",1001,"stroop",48,"green","green",NA,"f",1006.9,NA,NA,NA,NA,NA,NA,NA
"745","2022-09-23_10h40.27.251",1001,"stroop",49,"green","green",NA,"f",717.9,NA,NA,NA,NA,NA,NA,NA
"746","2022-09-23_10h40.27.251",1001,"stroop",50,"orange","blue",NA,"d",923.2,NA,NA,NA,NA,NA,NA,NA
"747","2022-09-23_10h40.27.251",1001,"stroop",51,"green","green",NA,"f",766.7,NA,NA,NA,NA,NA,NA,NA
"748","2022-09-23_10h40.27.251",1001,"stroop",52,"green","yellow",NA,"k",849.9,NA,NA,NA,NA,NA,NA,NA
"749","2022-09-23_10h40.27.251",1001,"stroop",53,"orange","yellow",NA,"k",1035.4,NA,NA,NA,NA,NA,NA,NA
"750","2022-09-23_10h40.27.251",1001,"stroop",54,"green","yellow",NA,"k",794.5,NA,NA,NA,NA,NA,NA,NA
"751","2022-09-23_10h40.27.251",1001,"stroop",55,"green","green",NA,"f",716.2,NA,NA,NA,NA,NA,NA,NA
"752","2022-09-23_10h40.27.251",1001,"stroop",56,"orange","orange",NA,"j",984.8,NA,NA,NA,NA,NA,NA,NA
"753","2022-09-23_10h40.27.251",1001,"stroop",57,"orange","green",NA,"f",1141.8,NA,NA,NA,NA,NA,NA,NA
"754","2022-09-23_10h40.27.251",1001,"stroop",58,"green","blue",NA,"d",774.8,NA,NA,NA,NA,NA,NA,NA
"755","2022-09-23_10h40.27.251",1001,"stroop",59,"yellow","blue",NA,"k",753,NA,NA,NA,NA,NA,NA,NA
"756","2022-09-23_10h40.27.251",1001,"stroop",60,"yellow","green",NA,"f",2136.2,NA,NA,NA,NA,NA,NA,NA
"757","2022-09-23_10h40.27.251",1001,"stroop",61,"orange","blue",NA,"d",1123.5,NA,NA,NA,NA,NA,NA,NA
"758","2022-09-23_10h40.27.251",1001,"stroop",62,"orange","orange",NA,"j",826.1,NA,NA,NA,NA,NA,NA,NA
"759","2022-09-23_10h40.27.251",1001,"stroop",63,"yellow","green",NA,"f",911.3,NA,NA,NA,NA,NA,NA,NA
"760","2022-09-23_10h40.27.251",1001,"stroop",64,"green","blue",NA,"d",849.7,NA,NA,NA,NA,NA,NA,NA
"761","2022-09-23_10h40.27.251",1001,"stroop",65,"green","orange",NA,"j",833.7,NA,NA,NA,NA,NA,NA,NA
"762","2022-09-23_10h40.27.251",1001,"stroop",66,"blue","green",NA,"f",1005.6,NA,NA,NA,NA,NA,NA,NA
"763","2022-09-23_10h40.27.251",1001,"stroop",67,"blue","yellow",NA,"k",918.8,NA,NA,NA,NA,NA,NA,NA
"764","2022-09-23_10h40.27.251",1001,"stroop",68,"green","yellow",NA,"k",822.4,NA,NA,NA,NA,NA,NA,NA
"765","2022-09-23_10h40.27.251",1001,"stroop",69,"blue","green",NA,"f",977,NA,NA,NA,NA,NA,NA,NA
"766","2022-09-23_10h40.27.251",1001,"stroop",70,"orange","green",NA,"f",1224.5,NA,NA,NA,NA,NA,NA,NA
"767","2022-09-23_10h40.27.251",1001,"stroop",71,"yellow","blue",NA,"d",1241.6,NA,NA,NA,NA,NA,NA,NA
"768","2022-09-23_10h40.27.251",1001,"stroop",72,"yellow","orange",NA,"j",888.6,NA,NA,NA,NA,NA,NA,NA
"769","2022-09-23_10h40.27.251",1001,"stroop",73,"green","green",NA,"f",910.4,NA,NA,NA,NA,NA,NA,NA
"770","2022-09-23_10h40.27.251",1001,"stroop",74,"orange","orange",NA,"j",1024.9,NA,NA,NA,NA,NA,NA,NA
"771","2022-09-23_10h40.27.251",1001,"stroop",75,"orange","orange",NA,"j",825.5,NA,NA,NA,NA,NA,NA,NA
"772","2022-09-23_10h40.27.251",1001,"stroop",76,"yellow","green",NA,"f",934.1,NA,NA,NA,NA,NA,NA,NA
"773","2022-09-23_10h40.27.251",1001,"stroop",77,"blue","blue",NA,"d",737,NA,NA,NA,NA,NA,NA,NA
"774","2022-09-23_10h40.27.251",1001,"stroop",78,"yellow","green",NA,"f",1055,NA,NA,NA,NA,NA,NA,NA
"775","2022-09-23_10h40.27.251",1001,"stroop",79,"yellow","blue",NA,"d",798.5,NA,NA,NA,NA,NA,NA,NA
"776","2022-09-23_10h40.27.251",1001,"stroop",80,"yellow","green",NA,"f",757.3,NA,NA,NA,NA,NA,NA,NA
"777","2022-09-23_10h40.27.251",1001,"stroop",81,"green","orange",NA,"j",850.8,NA,NA,NA,NA,NA,NA,NA
"778","2022-09-23_10h40.27.251",1001,"stroop",82,"orange","orange",NA,"j",816.4,NA,NA,NA,NA,NA,NA,NA
"779","2022-09-23_10h40.27.251",1001,"stroop",83,"yellow","yellow",NA,"k",784.1,NA,NA,NA,NA,NA,NA,NA
"780","2022-09-23_10h40.27.251",1001,"stroop",84,"green","green",NA,"f",1140.1,NA,NA,NA,NA,NA,NA,NA
"781","2022-09-23_10h40.27.251",1001,"stroop",85,"green","green",NA,"f",776,NA,NA,NA,NA,NA,NA,NA
"782","2022-09-23_10h40.27.251",1001,"stroop",86,"orange","orange",NA,"j",693.3,NA,NA,NA,NA,NA,NA,NA
"783","2022-09-23_10h40.27.251",1001,"stroop",87,"yellow","green",NA,"f",1133.8,NA,NA,NA,NA,NA,NA,NA
"784","2022-09-23_10h40.27.251",1001,"stroop",88,"green","blue",NA,"d",834.3,NA,NA,NA,NA,NA,NA,NA
"785","2022-09-23_10h40.27.251",1001,"stroop",89,"orange","orange",NA,"j",793,NA,NA,NA,NA,NA,NA,NA
"786","2022-09-23_10h40.27.251",1001,"stroop",90,"green","green",NA,"f",877.2,NA,NA,NA,NA,NA,NA,NA
"787","2022-09-23_10h40.27.251",1001,"stroop",91,"green","blue",NA,"d",839.3,NA,NA,NA,NA,NA,NA,NA
"788","2022-09-23_10h40.27.251",1001,"stroop",92,"blue","blue",NA,"d",673.2,NA,NA,NA,NA,NA,NA,NA
"789","2022-09-23_10h40.27.251",1001,"stroop",93,"blue","blue",NA,"d",526.9,NA,NA,NA,NA,NA,NA,NA
"790","2022-09-23_10h40.27.251",1001,"stroop",94,"green","orange",NA,"j",799.8,NA,NA,NA,NA,NA,NA,NA
"791","2022-09-23_10h40.27.251",1001,"stroop",95,"yellow","yellow",NA,"k",816.9,NA,NA,NA,NA,NA,NA,NA
"792","2022-09-23_10h40.27.251",1001,"stroop",96,"orange","orange",NA,"j",706.2,NA,NA,NA,NA,NA,NA,NA
"793","2022-09-23_10h40.27.251",1001,"stroop",97,"blue","green",NA,"f",883.5,NA,NA,NA,NA,NA,NA,NA
"794","2022-09-23_10h40.27.251",1001,"stroop",98,"yellow","yellow",NA,"k",1319.2,NA,NA,NA,NA,NA,NA,NA
"795","2022-09-23_10h40.27.251",1001,"stroop",99,"orange","blue",NA,"d",676.3,NA,NA,NA,NA,NA,NA,NA
"796","2022-09-23_10h40.27.251",1001,"stroop",100,"yellow","green",NA,"f",868.4,NA,NA,NA,NA,NA,NA,NA
"797","2022-09-23_10h40.27.251",1001,"stroop",101,"green","blue",NA,"d",704.2,NA,NA,NA,NA,NA,NA,NA
"798","2022-09-23_10h40.27.251",1001,"stroop",102,"blue","orange",NA,"j",672,NA,NA,NA,NA,NA,NA,NA
"799","2022-09-23_10h40.27.251",1001,"stroop",103,"blue","blue",NA,"d",739.5,NA,NA,NA,NA,NA,NA,NA
"800","2022-09-23_10h40.27.251",1001,"stroop",104,"blue","blue",NA,"d",634.3,NA,NA,NA,NA,NA,NA,NA
"801","2022-09-23_10h40.27.251",1001,"stroop",105,"blue","blue",NA,"d",539.4,NA,NA,NA,NA,NA,NA,NA
"802","2022-09-23_10h40.27.251",1001,"stroop",106,"yellow","yellow",NA,"k",667.5,NA,NA,NA,NA,NA,NA,NA
"803","2022-09-23_10h40.27.251",1001,"stroop",107,"orange","blue",NA,"d",819.7,NA,NA,NA,NA,NA,NA,NA
"804","2022-09-23_10h40.27.251",1001,"stroop",108,"yellow","orange",NA,"j",740.2,NA,NA,NA,NA,NA,NA,NA
"805","2022-09-23_10h40.27.251",1001,"stroop",109,"orange","orange",NA,"j",917,NA,NA,NA,NA,NA,NA,NA
"806","2022-09-23_10h40.27.251",1001,"stroop",110,"blue","blue",NA,"d",669.9,NA,NA,NA,NA,NA,NA,NA
"807","2022-09-23_10h40.27.251",1001,"stroop",111,"green","yellow",NA,"k",1033.6,NA,NA,NA,NA,NA,NA,NA
"808","2022-09-23_10h40.27.251",1001,"stroop",112,"blue","orange",NA,"j",1043.4,NA,NA,NA,NA,NA,NA,NA
"809","2022-09-23_10h40.27.251",1001,"stroop",113,"blue","blue",NA,"d",850.1,NA,NA,NA,NA,NA,NA,NA
"810","2022-09-23_10h40.27.251",1001,"stroop",114,"orange","green",NA,"f",933.3,NA,NA,NA,NA,NA,NA,NA
"811","2022-09-23_10h40.27.251",1001,"stroop",115,"orange","yellow",NA,"k",2350.1,NA,NA,NA,NA,NA,NA,NA
"812","2022-09-23_10h40.27.251",1001,"stroop",116,"green","green",NA,"f",1266.3,NA,NA,NA,NA,NA,NA,NA
"813","2022-09-23_10h40.27.251",1001,"stroop",117,"orange","yellow",NA,"k",1173.6,NA,NA,NA,NA,NA,NA,NA
"814","2022-09-23_10h40.27.251",1001,"stroop",118,"blue","blue",NA,"d",977.8,NA,NA,NA,NA,NA,NA,NA
"815","2022-09-23_10h40.27.251",1001,"stroop",119,"yellow","yellow",NA,"k",856.7,NA,NA,NA,NA,NA,NA,NA
"816","2022-09-23_10h40.27.251",1001,"stroop",120,"orange","orange",NA,"j",756.9,NA,NA,NA,NA,NA,NA,NA
"817","2022-09-23_10h40.27.251",1001,"stroop",121,"orange","orange",NA,"j",866.9,NA,NA,NA,NA,NA,NA,NA
"818","2022-09-23_10h40.27.251",1001,"stroop",122,"orange","green",NA,"f",956.1,NA,NA,NA,NA,NA,NA,NA
"819","2022-09-23_10h40.27.251",1001,"stroop",123,"blue","yellow",NA,"j",892.2,NA,NA,NA,NA,NA,NA,NA
"820","2022-09-23_10h40.27.251",1001,"stroop",124,"green","yellow",NA,"k",1534.4,NA,NA,NA,NA,NA,NA,NA
"821","2022-09-23_10h40.27.251",1001,"stroop",125,"green","blue",NA,"d",1574.4,NA,NA,NA,NA,NA,NA,NA
"822","2022-09-23_10h40.27.251",1001,"stroop",126,"yellow","green",NA,"f",1892.6,NA,NA,NA,NA,NA,NA,NA
"823","2022-09-23_10h40.27.251",1001,"stroop",127,"orange","orange",NA,"j",1699.8,NA,NA,NA,NA,NA,NA,NA
"824","2022-09-23_10h40.27.251",1001,"stroop",128,"blue","orange",NA,"j",1321.4,NA,NA,NA,NA,NA,NA,NA
"825","2022-09-23_10h40.27.251",1001,"stroop",129,"blue","orange",NA,"j",817.1,NA,NA,NA,NA,NA,NA,NA
"826","2022-09-23_10h40.27.251",1001,"stroop",130,"green","orange",NA,"j",950,NA,NA,NA,NA,NA,NA,NA
"827","2022-09-23_10h40.27.251",1001,"stroop",131,"green","blue",NA,"d",1238,NA,NA,NA,NA,NA,NA,NA
"828","2022-09-23_10h40.27.251",1001,"stroop",132,"yellow","blue",NA,"d",760.6,NA,NA,NA,NA,NA,NA,NA
"829","2022-09-23_10h40.27.251",1001,"stroop",133,"yellow","yellow",NA,"k",924.3,NA,NA,NA,NA,NA,NA,NA
"830","2022-09-23_10h40.27.251",1001,"stroop",134,"blue","orange",NA,"j",835.8,NA,NA,NA,NA,NA,NA,NA
"831","2022-09-23_10h40.27.251",1001,"stroop",135,"orange","blue",NA,"d",966.5,NA,NA,NA,NA,NA,NA,NA
"832","2022-09-23_10h40.27.251",1001,"stroop",136,"yellow","orange",NA,"j",1102.2,NA,NA,NA,NA,NA,NA,NA
"833","2022-09-23_10h40.27.251",1001,"stroop",137,"orange","yellow",NA,"k",888,NA,NA,NA,NA,NA,NA,NA
"834","2022-09-23_10h40.27.251",1001,"stroop",138,"green","green",NA,"f",909.5,NA,NA,NA,NA,NA,NA,NA
"835","2022-09-23_10h40.27.251",1001,"stroop",139,"yellow","yellow",NA,"k",866.4,NA,NA,NA,NA,NA,NA,NA
"836","2022-09-23_10h40.27.251",1001,"stroop",140,"orange","orange",NA,"j",805.2,NA,NA,NA,NA,NA,NA,NA
"837","2022-09-23_10h40.27.251",1001,"stroop",141,"blue","yellow",NA,"k",873.1,NA,NA,NA,NA,NA,NA,NA
"838","2022-09-23_10h40.27.251",1001,"stroop",142,"yellow","yellow",NA,"k",723.3,NA,NA,NA,NA,NA,NA,NA
"839","2022-09-23_10h40.27.251",1001,"stroop",143,"yellow","blue",NA,"d",1087.9,NA,NA,NA,NA,NA,NA,NA
"840","2022-09-23_10h40.27.251",1001,"stroop",144,"blue","blue",NA,"d",674.8,NA,NA,NA,NA,NA,NA,NA
"841","2022-09-23_10h40.27.251",1001,"stroop",145,"green","green",NA,"f",924.1,NA,NA,NA,NA,NA,NA,NA
"842","2022-09-23_10h40.27.251",1001,"stroop",146,"green","green",NA,"f",707.1,NA,NA,NA,NA,NA,NA,NA
"843","2022-09-23_10h40.27.251",1001,"stroop",147,"orange","orange",NA,"j",739.9,NA,NA,NA,NA,NA,NA,NA
"844","2022-09-23_10h40.27.251",1001,"stroop",148,"yellow","yellow",NA,"k",717.3,NA,NA,NA,NA,NA,NA,NA
"845","2022-09-23_10h40.27.251",1001,"stroop",149,"orange","blue",NA,"d",767.2,NA,NA,NA,NA,NA,NA,NA
"846","2022-09-23_10h40.27.251",1001,"stroop",150,"green","yellow",NA,"k",886.5,NA,NA,NA,NA,NA,NA,NA
"847","2022-09-23_10h40.27.251",1001,"stroop",151,"green","blue",NA,"d",1117.7,NA,NA,NA,NA,NA,NA,NA
"848","2022-09-23_10h40.27.251",1001,"stroop",152,"blue","blue",NA,"d",668.2,NA,NA,NA,NA,NA,NA,NA
"849","2022-09-23_10h40.27.251",1001,"stroop",153,"blue","orange",NA,"j",986.3,NA,NA,NA,NA,NA,NA,NA
"850","2022-09-23_10h40.27.251",1001,"stroop",154,"blue","blue",NA,"d",805,NA,NA,NA,NA,NA,NA,NA
"851","2022-09-23_10h40.27.251",1001,"stroop",155,"yellow","yellow",NA,"k",710.2,NA,NA,NA,NA,NA,NA,NA
"852","2022-09-23_10h40.27.251",1001,"stroop",156,"blue","yellow",NA,"d",890.8,NA,NA,NA,NA,NA,NA,NA
"853","2022-09-23_10h40.27.251",1001,"stroop",157,"orange","orange",NA,"j",704.9,NA,NA,NA,NA,NA,NA,NA
"854","2022-09-23_10h40.27.251",1001,"stroop",158,"green","yellow",NA,"k",1007.2,NA,NA,NA,NA,NA,NA,NA
"855","2022-09-23_10h40.27.251",1001,"stroop",159,"orange","orange",NA,"j",878,NA,NA,NA,NA,NA,NA,NA
"856","2022-09-23_10h40.27.251",1001,"stroop",160,"yellow","blue",NA,"d",833.7,NA,NA,NA,NA,NA,NA,NA
"857","2022-09-23_10h40.27.251",1001,"stroop",161,"green","green",NA,"f",740.2,NA,NA,NA,NA,NA,NA,NA
"858","2022-09-23_10h40.27.251",1001,"stroop",162,"green","green",NA,"f",640.8,NA,NA,NA,NA,NA,NA,NA
"859","2022-09-23_10h40.27.251",1001,"stroop",163,"green","green",NA,"f",739.5,NA,NA,NA,NA,NA,NA,NA
"860","2022-09-23_10h40.27.251",1001,"stroop",164,"blue","yellow",NA,"k",1954.6,NA,NA,NA,NA,NA,NA,NA
"861","2022-09-23_10h40.27.251",1001,"stroop",165,"blue","green",NA,"f",1165.7,NA,NA,NA,NA,NA,NA,NA
"862","2022-09-23_10h40.27.251",1001,"stroop",166,"green","green",NA,"f",944.6,NA,NA,NA,NA,NA,NA,NA
"863","2022-09-23_10h40.27.251",1001,"stroop",167,"orange","green",NA,"f",1284.6,NA,NA,NA,NA,NA,NA,NA
"864","2022-09-23_10h40.27.251",1001,"stroop",168,"yellow","yellow",NA,"k",806.8,NA,NA,NA,NA,NA,NA,NA
"865","2022-09-23_10h40.27.251",1001,"stroop",169,"blue","blue",NA,"d",720.1,NA,NA,NA,NA,NA,NA,NA
"866","2022-09-23_10h40.27.251",1001,"stroop",170,"blue","orange",NA,"j",950.4,NA,NA,NA,NA,NA,NA,NA
"867","2022-09-23_10h40.27.251",1001,"stroop",171,"green","green",NA,"f",3383,NA,NA,NA,NA,NA,NA,NA
"868","2022-09-23_10h40.27.251",1001,"stroop",172,"yellow","yellow",NA,"k",720.1,NA,NA,NA,NA,NA,NA,NA
"869","2022-09-23_10h40.27.251",1001,"stroop",173,"orange","yellow",NA,"k",966.6,NA,NA,NA,NA,NA,NA,NA
"870","2022-09-23_10h40.27.251",1001,"stroop",174,"blue","blue",NA,"d",1217.6,NA,NA,NA,NA,NA,NA,NA
"871","2022-09-23_10h40.27.251",1001,"stroop",175,"yellow","yellow",NA,"k",793.3,NA,NA,NA,NA,NA,NA,NA
"872","2022-09-23_10h40.27.251",1001,"stroop",176,"yellow","blue",NA,"d",822.5,NA,NA,NA,NA,NA,NA,NA
"873","2022-09-23_10h40.27.251",1001,"stroop",177,"green","yellow",NA,"k",3186.2,NA,NA,NA,NA,NA,NA,NA
"874","2022-09-23_10h40.27.251",1001,"stroop",178,"orange","orange",NA,"j",811.9,NA,NA,NA,NA,NA,NA,NA
"875","2022-09-23_10h40.27.251",1001,"stroop",179,"blue","green",NA,"f",1033.7,NA,NA,NA,NA,NA,NA,NA
"876","2022-09-23_10h40.27.251",1001,"stroop",180,"orange","orange",NA,"j",1040.4,NA,NA,NA,NA,NA,NA,NA
"877","2022-09-23_10h40.27.251",1001,"stroop",181,"orange","green",NA,"f",2374.3,NA,NA,NA,NA,NA,NA,NA
"878","2022-09-23_10h40.27.251",1001,"stroop",182,"blue","orange",NA,"j",1057.9,NA,NA,NA,NA,NA,NA,NA
"879","2022-09-23_10h40.27.251",1001,"stroop",183,"orange","yellow",NA,"k",1752.2,NA,NA,NA,NA,NA,NA,NA
"880","2022-09-23_10h40.27.251",1001,"stroop",184,"yellow","yellow",NA,"k",942.6,NA,NA,NA,NA,NA,NA,NA
"881","2022-09-23_10h40.27.251",1001,"stroop",185,"green","orange",NA,"j",833.6,NA,NA,NA,NA,NA,NA,NA
"882","2022-09-23_10h40.27.251",1001,"stroop",186,"orange","blue",NA,"d",1305.2,NA,NA,NA,NA,NA,NA,NA
"883","2022-09-23_10h40.27.251",1001,"stroop",187,"orange","blue",NA,"d",949.9,NA,NA,NA,NA,NA,NA,NA
"884","2022-09-23_10h40.27.251",1001,"stroop",188,"blue","yellow",NA,"k",1234.8,NA,NA,NA,NA,NA,NA,NA
"885","2022-09-23_10h40.27.251",1001,"stroop",189,"blue","green",NA,"f",1007,NA,NA,NA,NA,NA,NA,NA
"886","2022-09-23_10h40.27.251",1001,"stroop",190,"orange","yellow",NA,"k",1668.5,NA,NA,NA,NA,NA,NA,NA
"887","2022-09-23_10h40.27.251",1001,"stroop",191,"green","green",NA,"f",1272.7,NA,NA,NA,NA,NA,NA,NA
"888","2022-09-23_10h40.27.251",1001,"stroop",192,"yellow","yellow",NA,"k",1225.2,NA,NA,NA,NA,NA,NA,NA
"889","2022-09-23_10h40.27.251",1001,"emotional",1,"seat","orange","neutral","j",952.2,54,4.95,2.95,4.84,0.98,1.72,1.88
"890","2022-09-23_10h40.27.251",1001,"emotional",2,"blase","green","neutral","f",730.9,7,4.89,3.94,4.57,1.16,1.76,1.44
"891","2022-09-23_10h40.27.251",1001,"emotional",3,"contents","yellow","neutral","k",950.4,16,4.89,4.32,4.85,0.89,2.14,1.49
"892","2022-09-23_10h40.27.251",1001,"emotional",4,"merry","orange","positive","j",672.5,8,7.9,5.9,6.64,1.49,2.42,1.66
"893","2022-09-23_10h40.27.251",1001,"emotional",5,"joke","blue","positive","d",661.1,22,8.1,6.74,6.15,1.36,1.84,1.86
"894","2022-09-23_10h40.27.251",1001,"emotional",6,"burial","yellow","negative","k",1264.5,11,2.05,5.08,3.55,1.41,2.4,1.95
"895","2022-09-23_10h40.27.251",1001,"emotional",7,"tragedy","green","negative","d",850.9,49,1.78,6.24,3.5,1.31,2.64,2.34
"896","2022-09-23_10h40.27.251",1001,"emotional",8,"phase","green","neutral","f",2265.3,72,5.17,3.98,4.65,0.79,1.82,1.72
"897","2022-09-23_10h40.27.251",1001,"emotional",9,"hate","orange","negative","j",1722,42,2.12,6.95,5.05,1.72,2.56,2.95
"898","2022-09-23_10h40.27.251",1001,"emotional",10,"stupid","yellow","negative","k",939.8,24,2.31,4.72,2.98,1.37,2.71,2.18
"899","2022-09-23_10h40.27.251",1001,"emotional",11,"defeated","yellow","negative","k",2231,15,2.34,5.09,3.11,1.66,3,2.34
"900","2022-09-23_10h40.27.251",1001,"emotional",12,"rescue","green","positive","f",2055.3,15,7.7,6.53,6.45,1.24,2.56,2.29
"901","2022-09-23_10h40.27.251",1001,"emotional",13,"hostage","blue","negative","d",978.2,2,2.2,6.76,2.83,1.8,2.63,2.32
"902","2022-09-23_10h40.27.251",1001,"emotional",14,"starving","blue","negative","d",802.7,6,2.39,5.61,3.63,1.82,2.53,2.1
"903","2022-09-23_10h40.27.251",1001,"emotional",15,"beach","green","positive","f",735.2,61,8.03,5.53,5.44,1.59,3.07,2.52
"904","2022-09-23_10h40.27.251",1001,"emotional",16,"treasure","yellow","positive","k",716.6,4,8.27,6.75,6.36,0.9,2.3,2.42
"905","2022-09-23_10h40.27.251",1001,"emotional",17,"malaria","orange","negative","j",699.8,3,2.4,4.4,3.22,1.38,2.54,1.9
"906","2022-09-23_10h40.27.251",1001,"emotional",18,"drown","orange","negative","j",611.6,3,1.92,6.57,2.86,1.48,2.33,1.99
"907","2022-09-23_10h40.27.251",1001,"emotional",19,"cliff","yellow","neutral","k",773.7,11,4.67,6.25,4.35,2.08,2.15,2.11
"908","2022-09-23_10h40.27.251",1001,"emotional",20,"insecure","orange","negative","k",664.9,3,2.36,5.56,2.33,1.33,2.34,1.95
"909","2022-09-23_10h40.27.251",1001,"emotional",21,"trophy","green","positive","f",1745.9,8,7.78,5.39,6.44,1.22,2.44,2.32
"910","2022-09-23_10h40.27.251",1001,"emotional",22,"pain","orange","negative","j",916,88,2.13,6.5,3.71,1.81,2.49,2.53
"911","2022-09-23_10h40.27.251",1001,"emotional",23,"improve","blue","positive","d",762.1,39,7.65,5.69,6.08,1.16,2.15,2.25
"912","2022-09-23_10h40.27.251",1001,"emotional",24,"poison","yellow","negative","k",687.2,10,1.98,6.05,3.1,1.44,2.82,2.44
"913","2022-09-23_10h40.27.251",1001,"emotional",25,"disaster","green","negative","f",715.3,26,1.73,6.33,3.52,1.13,2.7,2.42
"914","2022-09-23_10h40.27.251",1001,"emotional",26,"despise","blue","negative","d",772.1,7,2.03,6.28,4.72,1.38,2.43,2.8
"915","2022-09-23_10h40.27.251",1001,"emotional",27,"divorce","orange","negative","j",733.4,29,2.22,6.33,3.26,1.88,2.71,2.24
"916","2022-09-23_10h40.27.251",1001,"emotional",28,"proud","yellow","positive","k",730.3,50,8.03,5.56,6.74,1.56,3.01,2.73
"917","2022-09-23_10h40.27.251",1001,"emotional",29,"pencil","green","neutral","f",938.3,34,5.22,3.14,4.78,0.68,1.9,1.73
"918","2022-09-23_10h40.27.251",1001,"emotional",30,"aloof","blue","neutral","d",751.7,5,4.9,4.28,4.69,1.92,2.1,1.92
"919","2022-09-23_10h40.27.251",1001,"emotional",31,"fabric","orange","neutral","f",768.4,15,5.3,4.14,5.03,1.2,1.98,1.61
"920","2022-09-23_10h40.27.251",1001,"emotional",32,"champion","blue","positive","d",1728.5,23,8.44,5.85,6.5,0.9,3.15,2.85
"921","2022-09-23_10h40.27.251",1001,"emotional",33,"sunlight","yellow","positive","k",706.9,17,7.76,6.1,5.63,1.43,2.3,2.15
"922","2022-09-23_10h40.27.251",1001,"emotional",34,"romantic","orange","positive","j",802.5,32,8.32,7.59,6.08,1,2.07,2.29
"923","2022-09-23_10h40.27.251",1001,"emotional",35,"cruel","green","negative","f",699.6,15,1.97,5.68,4.24,1.67,2.65,2.84
"924","2022-09-23_10h40.27.251",1001,"emotional",36,"taxi","green","neutral","f",772.7,16,5,3.41,4.64,1.96,2.14,1.83
"925","2022-09-23_10h40.27.251",1001,"emotional",37,"mantel","yellow","neutral","k",906.3,3,4.93,3.27,4.95,1.4,2.23,1.61
"926","2022-09-23_10h40.27.251",1001,"emotional",38,"paradise","yellow","positive","k",798.7,12,8.72,5.12,6.03,0.6,3.38,2.79
"927","2022-09-23_10h40.27.251",1001,"emotional",39,"crucify","blue","negative","d",737,2,2.23,6.47,3.74,1.72,2.47,2.48
"928","2022-09-23_10h40.27.251",1001,"emotional",40,"sunset","green","positive","f",738.1,14,7.68,4.2,5.66,1.72,2.99,2.08
"929","2022-09-23_10h40.27.251",1001,"emotional",41,"sunrise","blue","positive","d",845.1,10,7.86,5.06,5.29,1.35,3.05,2.41
"930","2022-09-23_10h40.27.251",1001,"emotional",42,"useless","blue","negative","d",672.8,17,2.13,4.87,3.92,1.42,2.58,2.62
"931","2022-09-23_10h40.27.251",1001,"emotional",43,"cannon","yellow","neutral","k",700.3,7,4.9,4.71,5.17,2.2,2.84,2.29
"932","2022-09-23_10h40.27.251",1001,"emotional",44,"afraid","orange","negative","j",769.2,57,2,6.67,3.98,1.28,2.54,2.63
